"success","timeout","failed_images","failed_audio","failed_video","trial_type","trial_index","time_elapsed","internal_node_id","rt","stimulus","response","test_part","stim","accuracy","confidence","index","word_position","correct_response"
"true","false","[]","[]","[]","preload","0","23517","0.0-0.0","","","","","","","","","",""
"","","","","","html-keyboard-response","1","75317","0.0-1.0","51798","<p> This experiment is presented in an auditory format</p><p>Please make sure that you increase the volume on your computer.</p><p>If you are blind and use a screenreader (e.g., JAWS, NVDA, VoiceOver), we highly recommend that you turn it off before starting the experiment.</p><p> <i> Press the spacebar to start hearing the instructions. </i> </p>"," ","","","","","","",""
"","","","","","audio-keyboard-response","2","92280","0.0-2.0","null","stim/audio_instructions/DRM_instructions_0.mp3","null","","","","","","",""
"","","","","","html-keyboard-response","3","93144","0.0-3.0","863","stim/audio_instructions/silence.mp3"," ","","","","","","",""
"","","","","","audio-keyboard-response","4","123691","0.0-4.0","null","stim/audio_instructions/drm_instructions_1.mp3","null","","","","","","",""
"","","","","","audio-keyboard-response","5","125704","0.0-5.0","2011","stim/audio_instructions/silence.mp3"," ","","","","","","",""
"","","","","","audio-keyboard-response","6","130221","0.0-6.0","null","stim/audio_tones/tone_1.mp3","null","","","","","","",""
"","","","","","audio-keyboard-response","7","154049","0.0-7.0","null","stim/audio_instructions/drm_instructions_after_short_tone.mp3","null","","","","","","",""
"","","","","","audio-keyboard-response","8","162621","0.0-8.0","8571","stim/audio_instructions/silence.mp3","j","","","","","","",""
"","","","","","audio-keyboard-response","9","194699","0.0-9.0","null","stim/audio_instructions/drm_instructions_2.mp3","null","","","","","","",""
"","","","","","audio-keyboard-response","10","196942","0.0-10.0","","","","","","","","","",""
"","","","","","audio-keyboard-response","11","213419","0.0-11.0","null","stim/audio_instructions/drm_instructions_3.mp3","null","","","","","","",""
"","","","","","html-keyboard-response","12","213814","0.0-12.0","393","stim/audio_instructions/silence.mp3"," ","","","","","","",""
"","","","","","audio-keyboard-response","13","218329","0.0-13.0","null","stim/audio_tones/tone_2.mp3","null","","","","","","",""
"","","","","","audio-keyboard-response","14","227360","0.0-14.0","null","stim/audio_instructions/drm_instructions_5.mp3","null","","","","","","",""
"","","","","","html-keyboard-response","15","229959","0.0-15.0","2599","stim/audio_instructions/silence.mp3"," ","","","","","","",""
"","","","","","audio-keyboard-response","16","232974","0.0-16.0-0.0","null","stim/audio_tones/tone_2.mp3","null","practice","stim/audio_tones/tone_2.mp3","","","1","",""
"","","","","","audio-keyboard-response","17","233590","0.0-16.0-0.1","null","stim/audio_instructions/silence.mp3","null","practice","stim/audio_instructions/silence.mp3","","","2","",""
"","","","","","audio-keyboard-response","18","234602","0.0-16.0-0.2","null","stim/audio_practice/atom.mp3","null","practice","stim/audio_practice/atom.mp3","","","3","list",""
"","","","","","audio-keyboard-response","19","235619","0.0-16.0-0.3","null","stim/audio_practice/molecule.mp3","null","practice","stim/audio_practice/molecule.mp3","","","4","list",""
"","","","","","audio-keyboard-response","20","236633","0.0-16.0-0.4","null","stim/audio_practice/bond.mp3","null","practice","stim/audio_practice/bond.mp3","","","5","list",""
"","","","","","audio-keyboard-response","21","237643","0.0-16.0-0.5","null","stim/audio_practice/gas.mp3","null","practice","stim/audio_practice/gas.mp3","","","6","list",""
"","","","","","audio-keyboard-response","22","238651","0.0-16.0-0.6","null","stim/audio_practice/electron.mp3","null","practice","stim/audio_practice/electron.mp3","","","7","list",""
"","","","","","audio-keyboard-response","23","239657","0.0-16.0-0.7","null","stim/audio_practice/oxygen.mp3","null","practice","stim/audio_practice/oxygen.mp3","","","8","list",""
"","","","","","audio-keyboard-response","24","240666","0.0-16.0-0.8","null","stim/audio_tones/tone_1.mp3","null","practice","stim/audio_tones/tone_1.mp3","","","9","responsePrompt",""
"","","","","","audio-keyboard-response","25","245120","0.0-16.0-0.9","","","","practice","stim/audio_practice/chemistry.mp3","false","100","10","target","74"
"","","","","","audio-keyboard-response","26","245860","0.0-16.0-0.10","null","stim/audio_practice/chemistry.mp3","null","practice","stim/audio_tones/tone_2.mp3","","","11","",""
"","","","","","audio-keyboard-response","27","246475","0.0-16.0-0.11","null","stim/audio_instructions/silence.mp3","null","practice","stim/audio_instructions/silence.mp3","","","12","",""
"","","","","","audio-keyboard-response","28","247486","0.0-16.0-0.12","null","stim/audio_practice/shark.mp3","null","practice","stim/audio_practice/shark.mp3","","","13","list",""
"","","","","","audio-keyboard-response","29","248503","0.0-16.0-0.13","null","stim/audio_practice/island.mp3","null","practice","stim/audio_practice/island.mp3","","","14","list",""
"","","","","","audio-keyboard-response","30","249510","0.0-16.0-0.14","null","stim/audio_practice/waves.mp3","null","practice","stim/audio_practice/waves.mp3","","","15","list",""
"","","","","","audio-keyboard-response","31","250522","0.0-16.0-0.15","null","stim/audio_practice/shrimp.mp3","null","practice","stim/audio_practice/shrimp.mp3","","","16","list",""
"","","","","","audio-keyboard-response","32","251528","0.0-16.0-0.16","null","stim/audio_practice/ocean.mp3","null","practice","stim/audio_practice/ocean.mp3","","","17","list",""
"","","","","","audio-keyboard-response","33","252543","0.0-16.0-0.17","null","stim/audio_practice/whale.mp3","null","practice","stim/audio_practice/whale.mp3","","","18","list",""
"","","","","","audio-keyboard-response","34","253551","0.0-16.0-0.18","null","stim/audio_tones/tone_1.mp3","null","practice","stim/audio_tones/tone_1.mp3","","","19","responsePrompt",""
"","","","","","audio-keyboard-response","35","256231","0.0-16.0-0.19","","","","practice","stim/audio_practice/ocean.mp3","false","100","20","target","74"
"","","","","","audio-keyboard-response","36","258557","0.0-17.0","null","stim/audio_practice/ocean.mp3","null","","","","","","",""
"","","","","","audio-keyboard-response","37","272159","0.0-18.0","null","stim/audio_instructions/drm_instructions_6.mp3","null","","","","","","",""
"","","","","","html-keyboard-response","38","272562","0.0-19.0","401","stim/audio_instructions/silence.mp3"," ","","","","","","",""
"","","","","","audio-keyboard-response","39","273575","0.0-20.0-0.0","null","stim/audio_stimuli/plush.mp3","null","test","stim/audio_stimuli/plush.mp3","","","21","list",""
"","","","","","audio-keyboard-response","40","274587","0.0-20.0-0.1","null","stim/audio_stimuli/hard.mp3","null","test","stim/audio_stimuli/hard.mp3","","","22","list",""
"","","","","","audio-keyboard-response","41","275601","0.0-20.0-0.2","null","stim/audio_stimuli/touch.mp3","null","test","stim/audio_stimuli/touch.mp3","","","23","list",""
"","","","","","audio-keyboard-response","42","276606","0.0-20.0-0.3","null","stim/audio_stimuli/feather.mp3","null","test","stim/audio_stimuli/feather.mp3","","","24","list",""
"","","","","","audio-keyboard-response","43","277612","0.0-20.0-0.4","null","stim/audio_stimuli/downy.mp3","null","test","stim/audio_stimuli/downy.mp3","","","25","list",""
"","","","","","audio-keyboard-response","44","278621","0.0-20.0-0.5","null","stim/audio_stimuli/skin.mp3","null","test","stim/audio_stimuli/skin.mp3","","","26","list",""
"","","","","","audio-keyboard-response","45","280637","0.0-20.0-0.6","null","stim/audio_tones/tone_1.mp3","null","test","stim/audio_tones/tone_1.mp3","","","27","",""
"","","","","","audio-keyboard-response","46","284229","0.0-20.0-0.7","","","","test","stim/audio_stimuli/hard.mp3","false","100","28","target","74"
"","","","","","audio-keyboard-response","47","284243","0.0-20.0-0.8","null","stim/audio_instructions/silence.mp3","null","test","stim/audio_instructions/silence.mp3","","","29","",""
"","","","","","audio-keyboard-response","48","288257","0.0-20.0-0.9","null","stim/audio_tones/tone_2.mp3","null","test","stim/audio_tones/tone_2.mp3","","","30","",""
"","","","","","audio-keyboard-response","49","288273","0.0-20.0-0.10","null","stim/audio_instructions/silence.mp3","null","test","stim/audio_instructions/silence.mp3","","","31","",""
"","","","","","audio-keyboard-response","50","289289","0.0-20.0-0.11","null","stim/audio_stimuli/bitter.mp3","null","test","stim/audio_stimuli/bitter.mp3","","","32","list",""
"","","","","","audio-keyboard-response","51","290302","0.0-20.0-0.12","null","stim/audio_stimuli/taste.mp3","null","test","stim/audio_stimuli/taste.mp3","","","33","list",""
"","","","","","audio-keyboard-response","52","291311","0.0-20.0-0.13","null","stim/audio_stimuli/nice.mp3","null","test","stim/audio_stimuli/nice.mp3","","","34","list",""
"","","","","","audio-keyboard-response","53","292321","0.0-20.0-0.14","null","stim/audio_stimuli/soda.mp3","null","test","stim/audio_stimuli/soda.mp3","","","35","list",""
"","","","","","audio-keyboard-response","54","293330","0.0-20.0-0.15","null","stim/audio_stimuli/heart.mp3","null","test","stim/audio_stimuli/heart.mp3","","","36","list",""
"","","","","","audio-keyboard-response","55","294333","0.0-20.0-0.16","null","stim/audio_stimuli/tart.mp3","null","test","stim/audio_stimuli/tart.mp3","","","37","list",""
"","","","","","audio-keyboard-response","56","296335","0.0-20.0-0.17","null","stim/audio_tones/tone_1.mp3","null","test","stim/audio_tones/tone_1.mp3","","","38","",""
"","","","","","audio-keyboard-response","57","299136","0.0-20.0-0.18","","","","test","stim/audio_stimuli/sweet.mp3","false","100","39","target","70"
"","","","","","audio-keyboard-response","58","299157","0.0-20.0-0.19","null","stim/audio_instructions/silence.mp3","null","test","stim/audio_instructions/silence.mp3","","","40","",""
"","","","","","audio-keyboard-response","59","303168","0.0-20.0-0.20","null","stim/audio_tones/tone_2.mp3","null","test","stim/audio_tones/tone_2.mp3","","","41","",""
"","","","","","audio-keyboard-response","60","303184","0.0-20.0-0.21","null","stim/audio_instructions/silence.mp3","null","test","stim/audio_instructions/silence.mp3","","","42","",""
"","","","","","audio-keyboard-response","61","304198","0.0-20.0-0.22","null","stim/audio_stimuli/rifle.mp3","null","test","stim/audio_stimuli/rifle.mp3","","","43","list",""
"","","","","","audio-keyboard-response","62","305202","0.0-20.0-0.23","null","stim/audio_stimuli/draft.mp3","null","test","stim/audio_stimuli/draft.mp3","","","44","list",""
"","","","","","audio-keyboard-response","63","306212","0.0-20.0-0.24","null","stim/audio_stimuli/marines.mp3","null","test","stim/audio_stimuli/marines.mp3","","","45","list",""
"","","","","","audio-keyboard-response","64","307218","0.0-20.0-0.25","null","stim/audio_stimuli/infantry.mp3","null","test","stim/audio_stimuli/infantry.mp3","","","46","list",""
"","","","","","audio-keyboard-response","65","308235","0.0-20.0-0.26","null","stim/audio_stimuli/war.mp3","null","test","stim/audio_stimuli/war.mp3","","","47","list",""
"","","","","","audio-keyboard-response","66","309251","0.0-20.0-0.27","null","stim/audio_stimuli/pilot.mp3","null","test","stim/audio_stimuli/pilot.mp3","","","48","list",""
"","","","","","audio-keyboard-response","67","311269","0.0-20.0-0.28","null","stim/audio_tones/tone_1.mp3","null","test","stim/audio_tones/tone_1.mp3","","","49","",""
"","","","","","audio-keyboard-response","68","316278","0.0-20.0-0.29","null","stim/audio_stimuli/army.mp3","null","test","stim/audio_stimuli/army.mp3","false","77.7","50","target","70"
"","","","","","audio-keyboard-response","69","316299","0.0-20.0-0.30","null","stim/audio_instructions/silence.mp3","null","test","stim/audio_instructions/silence.mp3","","","51","",""
"","","","","","audio-keyboard-response","70","320318","0.0-20.0-0.31","null","stim/audio_tones/tone_2.mp3","null","test","stim/audio_tones/tone_2.mp3","","","52","",""
"","","","","","audio-keyboard-response","71","320336","0.0-20.0-0.32","null","stim/audio_instructions/silence.mp3","null","test","stim/audio_instructions/silence.mp3","","","53","",""
"","","","","","audio-keyboard-response","72","321351","0.0-20.0-0.33","null","stim/audio_stimuli/leak.mp3","null","test","stim/audio_stimuli/leak.mp3","","","54","list",""
"","","","","","audio-keyboard-response","73","322365","0.0-20.0-0.34","null","stim/audio_stimuli/felt.mp3","null","test","stim/audio_stimuli/felt.mp3","","","55","list",""
"","","","","","audio-keyboard-response","74","323371","0.0-20.0-0.35","null","stim/audio_stimuli/scribble.mp3","null","test","stim/audio_stimuli/scribble.mp3","","","56","list",""
"","","","","","audio-keyboard-response","75","324378","0.0-20.0-0.36","null","stim/audio_stimuli/cross.mp3","null","test","stim/audio_stimuli/cross.mp3","","","57","list",""
"","","","","","audio-keyboard-response","76","325383","0.0-20.0-0.37","null","stim/audio_stimuli/marker.mp3","null","test","stim/audio_stimuli/marker.mp3","","","58","list",""
"","","","","","audio-keyboard-response","77","326400","0.0-20.0-0.38","null","stim/audio_stimuli/cap.mp3","null","test","stim/audio_stimuli/cap.mp3","","","59","list",""
"","","","","","audio-keyboard-response","78","328412","0.0-20.0-0.39","null","stim/audio_tones/tone_1.mp3","null","test","stim/audio_tones/tone_1.mp3","","","60","",""
"","","","","","audio-keyboard-response","79","331371","0.0-20.0-0.40","","","","test","stim/audio_stimuli/pen.mp3","false","100","61","target","70"
"","","","","","audio-keyboard-response","80","331391","0.0-20.0-0.41","null","stim/audio_instructions/silence.mp3","null","test","stim/audio_instructions/silence.mp3","","","62","",""
"","","","","","audio-keyboard-response","81","335397","0.0-20.0-0.42","null","stim/audio_tones/tone_2.mp3","null","test","stim/audio_tones/tone_2.mp3","","","63","",""
"","","","","","audio-keyboard-response","82","335413","0.0-20.0-0.43","null","stim/audio_instructions/silence.mp3","null","test","stim/audio_instructions/silence.mp3","","","64","",""
"","","","","","audio-keyboard-response","83","336423","0.0-20.0-0.44","null","stim/audio_stimuli/billows.mp3","null","test","stim/audio_stimuli/billows.mp3","","","65","list",""
"","","","","","audio-keyboard-response","84","337435","0.0-20.0-0.45","null","stim/audio_stimuli/cigarette.mp3","null","test","stim/audio_stimuli/cigarette.mp3","false","0","66","target","74"
"","","","","","audio-keyboard-response","85","338442","0.0-20.0-0.46","null","stim/audio_stimuli/chimney.mp3","null","test","stim/audio_stimuli/chimney.mp3","","","67","list",""
"","","","","","audio-keyboard-response","86","339458","0.0-20.0-0.47","null","stim/audio_stimuli/tobacco.mp3","null","test","stim/audio_stimuli/tobacco.mp3","","","68","list",""
"","","","","","audio-keyboard-response","87","340477","0.0-20.0-0.48","null","stim/audio_stimuli/pipe.mp3","null","test","stim/audio_stimuli/pipe.mp3","","","69","list",""
"","","","","","audio-keyboard-response","88","341481","0.0-20.0-0.49","null","stim/audio_stimuli/flames.mp3","null","test","stim/audio_stimuli/flames.mp3","","","70","list",""
"","","","","","audio-keyboard-response","89","343496","0.0-20.0-0.50","null","stim/audio_tones/tone_1.mp3","null","test","stim/audio_tones/tone_1.mp3","","","71","",""
"","","","","","audio-keyboard-response","90","346334","0.0-20.0-0.51","","","","test","stim/audio_stimuli/cigarette.mp3","false","100","72","target","74"
"","","","","","audio-keyboard-response","91","346346","0.0-20.0-0.52","null","stim/audio_instructions/silence.mp3","null","test","stim/audio_instructions/silence.mp3","","","73","",""
"","","","","","audio-keyboard-response","92","350352","0.0-20.0-0.53","null","stim/audio_tones/tone_2.mp3","null","test","stim/audio_tones/tone_2.mp3","","","74","",""
"","","","","","audio-keyboard-response","93","350368","0.0-20.0-0.54","null","stim/audio_instructions/silence.mp3","null","test","stim/audio_instructions/silence.mp3","","","75","",""
"","","","","","audio-keyboard-response","94","351385","0.0-20.0-0.55","null","stim/audio_stimuli/sugar.mp3","null","test","stim/audio_stimuli/sugar.mp3","","","76","list",""
"","","","","","audio-keyboard-response","95","352395","0.0-20.0-0.56","null","stim/audio_stimuli/good.mp3","null","test","stim/audio_stimuli/good.mp3","","","77","list",""
"","","","","","audio-keyboard-response","96","353404","0.0-20.0-0.57","null","stim/audio_stimuli/tooth.mp3","null","test","stim/audio_stimuli/tooth.mp3","","","78","list",""
"","","","","","audio-keyboard-response","97","354420","0.0-20.0-0.58","null","stim/audio_stimuli/honey.mp3","null","test","stim/audio_stimuli/honey.mp3","","","79","list",""
"","","","","","audio-keyboard-response","98","355434","0.0-20.0-0.59","null","stim/audio_stimuli/chocolate.mp3","null","test","stim/audio_stimuli/chocolate.mp3","","","80","list",""
"","","","","","audio-keyboard-response","99","356438","0.0-20.0-0.60","null","stim/audio_stimuli/cake.mp3","null","test","stim/audio_stimuli/cake.mp3","","","81","list",""
"","","","","","audio-keyboard-response","100","358454","0.0-20.0-0.61","null","stim/audio_tones/tone_1.mp3","null","test","stim/audio_tones/tone_1.mp3","","","82","",""
"","","","","","audio-keyboard-response","101","361283","0.0-20.0-0.62","","","","test","stim/audio_stimuli/slow.mp3","false","100","83","target","70"
"","","","","","audio-keyboard-response","102","361298","0.0-20.0-0.63","null","stim/audio_instructions/silence.mp3","null","test","stim/audio_instructions/silence.mp3","","","84","",""
"","","","","","audio-keyboard-response","103","365308","0.0-20.0-0.64","null","stim/audio_tones/tone_2.mp3","null","test","stim/audio_tones/tone_2.mp3","","","85","",""
"","","","","","audio-keyboard-response","104","365324","0.0-20.0-0.65","null","stim/audio_instructions/silence.mp3","null","test","stim/audio_instructions/silence.mp3","","","86","",""
"","","","","","audio-keyboard-response","105","366331","0.0-20.0-0.66","null","stim/audio_stimuli/rage.mp3","null","test","stim/audio_stimuli/rage.mp3","","","87","list",""
"","","","","","audio-keyboard-response","106","367333","0.0-20.0-0.67","null","stim/audio_stimuli/fury.mp3","null","test","stim/audio_stimuli/fury.mp3","","","88","list",""
"","","","","","audio-keyboard-response","107","368341","0.0-20.0-0.68","null","stim/audio_stimuli/wrath.mp3","null","test","stim/audio_stimuli/wrath.mp3","","","89","list",""
"","","","","","audio-keyboard-response","108","369352","0.0-20.0-0.69","null","stim/audio_stimuli/fight.mp3","null","test","stim/audio_stimuli/fight.mp3","","","90","list",""
"","","","","","audio-keyboard-response","109","370367","0.0-20.0-0.70","null","stim/audio_stimuli/mean.mp3","null","test","stim/audio_stimuli/mean.mp3","","","91","list",""
"","","","","","audio-keyboard-response","110","371381","0.0-20.0-0.71","null","stim/audio_stimuli/emotion.mp3","null","test","stim/audio_stimuli/emotion.mp3","","","92","list",""
"","","","","","audio-keyboard-response","111","373394","0.0-20.0-0.72","null","stim/audio_tones/tone_1.mp3","null","test","stim/audio_tones/tone_1.mp3","","","93","",""
"","","","","","audio-keyboard-response","112","376247","0.0-20.0-0.73","","","","test","stim/audio_stimuli/anger.mp3","false","100","94","target","70"
"","","","","","audio-keyboard-response","113","376261","0.0-20.0-0.74","null","stim/audio_instructions/silence.mp3","null","test","stim/audio_instructions/silence.mp3","","","95","",""
"","","","","","audio-keyboard-response","114","380268","0.0-20.0-0.75","null","stim/audio_tones/tone_2.mp3","null","test","stim/audio_tones/tone_2.mp3","","","96","",""
"","","","","","audio-keyboard-response","115","380285","0.0-20.0-0.76","null","stim/audio_instructions/silence.mp3","null","test","stim/audio_instructions/silence.mp3","","","97","",""
"","","","","","audio-keyboard-response","116","381288","0.0-20.0-0.77","null","stim/audio_stimuli/pillow.mp3","null","test","stim/audio_stimuli/pillow.mp3","","","98","list",""
"","","","","","audio-keyboard-response","117","382300","0.0-20.0-0.78","null","stim/audio_stimuli/loud.mp3","null","test","stim/audio_stimuli/loud.mp3","","","99","list",""
"","","","","","audio-keyboard-response","118","383303","0.0-20.0-0.79","null","stim/audio_stimuli/fur.mp3","null","test","stim/audio_stimuli/fur.mp3","","","100","list",""
"","","","","","audio-keyboard-response","119","384317","0.0-20.0-0.80","null","stim/audio_stimuli/fluffy.mp3","null","test","stim/audio_stimuli/fluffy.mp3","","","101","list",""
"","","","","","audio-keyboard-response","120","385324","0.0-20.0-0.81","null","stim/audio_stimuli/furry.mp3","null","test","stim/audio_stimuli/furry.mp3","","","102","list",""
"","","","","","audio-keyboard-response","121","386339","0.0-20.0-0.82","null","stim/audio_stimuli/kitten.mp3","null","test","stim/audio_stimuli/kitten.mp3","","","103","list",""
"","","","","","audio-keyboard-response","122","388352","0.0-20.0-0.83","null","stim/audio_tones/tone_1.mp3","null","test","stim/audio_tones/tone_1.mp3","","","104","",""
"","","","","","audio-keyboard-response","123","391407","0.0-20.0-0.84","","","","test","stim/audio_stimuli/pencil.mp3","false","100","105","target","70"
"","","","","","audio-keyboard-response","124","391419","0.0-20.0-0.85","null","stim/audio_instructions/silence.mp3","null","test","stim/audio_instructions/silence.mp3","","","106","",""
"","","","","","audio-keyboard-response","125","395427","0.0-20.0-0.86","null","stim/audio_tones/tone_2.mp3","null","test","stim/audio_tones/tone_2.mp3","","","107","",""
"","","","","","audio-keyboard-response","126","395447","0.0-20.0-0.87","null","stim/audio_instructions/silence.mp3","null","test","stim/audio_instructions/silence.mp3","","","108","",""
"","","","","","audio-keyboard-response","127","396459","0.0-20.0-0.88","null","stim/audio_stimuli/unitedStates.mp3","null","test","stim/audio_stimuli/unitedStates.mp3","","","109","list",""
"","","","","","audio-keyboard-response","128","397468","0.0-20.0-0.89","null","stim/audio_stimuli/airForce.mp3","null","test","stim/audio_stimuli/airForce.mp3","","","110","list",""
"","","","","","audio-keyboard-response","129","398473","0.0-20.0-0.90","null","stim/audio_stimuli/military.mp3","null","test","stim/audio_stimuli/military.mp3","","","111","list",""
"","","","","","audio-keyboard-response","130","399484","0.0-20.0-0.91","null","stim/audio_stimuli/march.mp3","null","test","stim/audio_stimuli/march.mp3","","","112","list",""
"","","","","","audio-keyboard-response","131","400503","0.0-20.0-0.92","null","stim/audio_stimuli/captain.mp3","null","test","stim/audio_stimuli/captain.mp3","","","113","list",""
"","","","","","audio-keyboard-response","132","401519","0.0-20.0-0.93","null","stim/audio_stimuli/uniform.mp3","null","test","stim/audio_stimuli/uniform.mp3","","","114","list",""
"","","","","","audio-keyboard-response","133","403530","0.0-20.0-0.94","null","stim/audio_tones/tone_1.mp3","null","test","stim/audio_tones/tone_1.mp3","","","115","",""
"","","","","","audio-keyboard-response","134","406169","0.0-20.0-0.95","","","","test","stim/audio_stimuli/doctor.mp3","false","100","116","target","70"
"","","","","","audio-keyboard-response","135","406183","0.0-20.0-0.96","null","stim/audio_instructions/silence.mp3","null","test","stim/audio_instructions/silence.mp3","","","117","",""
"","","","","","audio-keyboard-response","136","410190","0.0-20.0-0.97","null","stim/audio_tones/tone_2.mp3","null","test","stim/audio_tones/tone_2.mp3","","","118","",""
"","","","","","audio-keyboard-response","137","410205","0.0-20.0-0.98","null","stim/audio_instructions/silence.mp3","null","test","stim/audio_instructions/silence.mp3","","","119","",""
"","","","","","audio-keyboard-response","138","411219","0.0-20.0-0.99","null","stim/audio_stimuli/sandwich.mp3","null","test","stim/audio_stimuli/sandwich.mp3","","","120","list",""
"","","","","","audio-keyboard-response","139","412231","0.0-20.0-0.100","null","stim/audio_stimuli/butter.mp3","null","test","stim/audio_stimuli/butter.mp3","false","0","121","target","74"
"","","","","","audio-keyboard-response","140","413241","0.0-20.0-0.101","null","stim/audio_stimuli/flour.mp3","null","test","stim/audio_stimuli/flour.mp3","","","122","list",""
"","","","","","audio-keyboard-response","141","414255","0.0-20.0-0.102","null","stim/audio_stimuli/dough.mp3","null","test","stim/audio_stimuli/dough.mp3","","","123","list",""
"","","","","","audio-keyboard-response","142","415265","0.0-20.0-0.103","null","stim/audio_stimuli/slice.mp3","null","test","stim/audio_stimuli/slice.mp3","","","124","list",""
"","","","","","audio-keyboard-response","143","416276","0.0-20.0-0.104","null","stim/audio_stimuli/loaf.mp3","null","test","stim/audio_stimuli/loaf.mp3","","","125","list",""
"","","","","","audio-keyboard-response","144","418280","0.0-20.0-0.105","null","stim/audio_tones/tone_1.mp3","null","test","stim/audio_tones/tone_1.mp3","","","126","",""
"","","","","","audio-keyboard-response","145","420606","0.0-20.0-0.106","","","","test","stim/audio_stimuli/butter.mp3","false","100","127","target","74"
"","","","","","audio-keyboard-response","146","420628","0.0-20.0-0.107","null","stim/audio_instructions/silence.mp3","null","test","stim/audio_instructions/silence.mp3","","","128","",""
"","","","","","audio-keyboard-response","147","424638","0.0-20.0-0.108","null","stim/audio_tones/tone_2.mp3","null","test","stim/audio_tones/tone_2.mp3","","","129","",""
"","","","","","audio-keyboard-response","148","424654","0.0-20.0-0.109","null","stim/audio_instructions/silence.mp3","null","test","stim/audio_instructions/silence.mp3","","","130","",""
"","","","","","audio-keyboard-response","149","425668","0.0-20.0-0.110","null","stim/audio_stimuli/fountain.mp3","null","test","stim/audio_stimuli/fountain.mp3","","","131","list",""
"","","","","","audio-keyboard-response","150","426677","0.0-20.0-0.111","null","stim/audio_stimuli/quill.mp3","null","test","stim/audio_stimuli/quill.mp3","","","132","list",""
"","","","","","audio-keyboard-response","151","427688","0.0-20.0-0.112","null","stim/audio_stimuli/bic.mp3","null","test","stim/audio_stimuli/bic.mp3","","","133","list",""
"","","","","","audio-keyboard-response","152","428698","0.0-20.0-0.113","null","stim/audio_stimuli/crayon.mp3","null","test","stim/audio_stimuli/crayon.mp3","","","134","list",""
"","","","","","audio-keyboard-response","153","429706","0.0-20.0-0.114","null","stim/audio_stimuli/tip.mp3","null","test","stim/audio_stimuli/tip.mp3","","","135","list",""
"","","","","","audio-keyboard-response","154","430728","0.0-20.0-0.115","null","stim/audio_stimuli/red.mp3","null","test","stim/audio_stimuli/red.mp3","","","136","list",""
"","","","","","audio-keyboard-response","155","432739","0.0-20.0-0.116","null","stim/audio_tones/tone_1.mp3","null","test","stim/audio_tones/tone_1.mp3","","","137","",""
"","","","","","audio-keyboard-response","156","437757","0.0-20.0-0.117","null","stim/audio_stimuli/thief.mp3","null","test","stim/audio_stimuli/thief.mp3","false","70.3","138","target","70"
"","","","","","audio-keyboard-response","157","437774","0.0-20.0-0.118","null","stim/audio_instructions/silence.mp3","null","test","stim/audio_instructions/silence.mp3","","","139","",""
"","","","","","audio-keyboard-response","158","441778","0.0-20.0-0.119","null","stim/audio_tones/tone_2.mp3","null","test","stim/audio_tones/tone_2.mp3","","","140","",""
"","","","","","audio-keyboard-response","159","441794","0.0-20.0-0.120","null","stim/audio_instructions/silence.mp3","null","test","stim/audio_instructions/silence.mp3","","","141","",""
"","","","","","audio-keyboard-response","160","442808","0.0-20.0-0.121","null","stim/audio_stimuli/blaze.mp3","null","test","stim/audio_stimuli/blaze.mp3","","","142","list",""
"","","","","","audio-keyboard-response","161","443813","0.0-20.0-0.122","null","stim/audio_stimuli/pollution.mp3","null","test","stim/audio_stimuli/pollution.mp3","","","143","list",""
"","","","","","audio-keyboard-response","162","444828","0.0-20.0-0.123","null","stim/audio_stimuli/cigar.mp3","null","test","stim/audio_stimuli/cigar.mp3","","","144","list",""
"","","","","","audio-keyboard-response","163","445836","0.0-20.0-0.124","null","stim/audio_stimuli/fire.mp3","null","test","stim/audio_stimuli/fire.mp3","","","145","list",""
"","","","","","audio-keyboard-response","164","446849","0.0-20.0-0.125","null","stim/audio_stimuli/stink.mp3","null","test","stim/audio_stimuli/stink.mp3","","","146","list",""
"","","","","","audio-keyboard-response","165","447859","0.0-20.0-0.126","null","stim/audio_stimuli/lungs.mp3","null","test","stim/audio_stimuli/lungs.mp3","","","147","list",""
"","","","","","audio-keyboard-response","166","449878","0.0-20.0-0.127","null","stim/audio_tones/tone_1.mp3","null","test","stim/audio_tones/tone_1.mp3","","","148","",""
"","","","","","audio-keyboard-response","167","453337","0.0-20.0-0.128","","","","test","stim/audio_stimuli/navy.mp3","false","100","149","target","70"
"","","","","","audio-keyboard-response","168","453352","0.0-20.0-0.129","null","stim/audio_instructions/silence.mp3","null","test","stim/audio_instructions/silence.mp3","","","150","",""
"","","","","","audio-keyboard-response","169","457356","0.0-20.0-0.130","null","stim/audio_tones/tone_2.mp3","null","test","stim/audio_tones/tone_2.mp3","","","151","",""
"","","","","","audio-keyboard-response","170","457372","0.0-20.0-0.131","null","stim/audio_instructions/silence.mp3","null","test","stim/audio_instructions/silence.mp3","","","152","",""
"","","","","","audio-keyboard-response","171","458380","0.0-20.0-0.132","null","stim/audio_stimuli/tamer.mp3","null","test","stim/audio_stimuli/tamer.mp3","","","153","list",""
"","","","","","audio-keyboard-response","172","459383","0.0-20.0-0.133","null","stim/audio_stimuli/cub.mp3","null","test","stim/audio_stimuli/cub.mp3","","","154","list",""
"","","","","","audio-keyboard-response","173","460395","0.0-20.0-0.134","null","stim/audio_stimuli/mane.mp3","null","test","stim/audio_stimuli/mane.mp3","","","155","list",""
"","","","","","audio-keyboard-response","174","461400","0.0-20.0-0.135","null","stim/audio_stimuli/feline.mp3","null","test","stim/audio_stimuli/feline.mp3","","","156","list",""
"","","","","","audio-keyboard-response","175","462408","0.0-20.0-0.136","null","stim/audio_stimuli/fierce.mp3","null","test","stim/audio_stimuli/fierce.mp3","","","157","list",""
"","","","","","audio-keyboard-response","176","463415","0.0-20.0-0.137","null","stim/audio_stimuli/hunt.mp3","null","test","stim/audio_stimuli/hunt.mp3","","","158","list",""
"","","","","","audio-keyboard-response","177","465429","0.0-20.0-0.138","null","stim/audio_tones/tone_1.mp3","null","test","stim/audio_tones/tone_1.mp3","","","159","",""
"","","","","","audio-keyboard-response","178","470437","0.0-20.0-0.139","null","stim/audio_stimuli/lion.mp3","null","test","stim/audio_stimuli/lion.mp3","false","3.7","160","target","70"
"","","","","","audio-keyboard-response","179","470453","0.0-20.0-0.140","null","stim/audio_instructions/silence.mp3","null","test","stim/audio_instructions/silence.mp3","","","161","",""
"","","","","","audio-keyboard-response","180","474464","0.0-20.0-0.141","null","stim/audio_tones/tone_2.mp3","null","test","stim/audio_tones/tone_2.mp3","","","162","",""
"","","","","","audio-keyboard-response","181","474483","0.0-20.0-0.142","null","stim/audio_instructions/silence.mp3","null","test","stim/audio_instructions/silence.mp3","","","163","",""
"","","","","","audio-keyboard-response","182","475493","0.0-20.0-0.143","null","stim/audio_stimuli/kick.mp3","null","test","stim/audio_stimuli/kick.mp3","","","164","list",""
"","","","","","audio-keyboard-response","183","476497","0.0-20.0-0.144","null","stim/audio_stimuli/shoe.mp3","null","test","stim/audio_stimuli/shoe.mp3","false","0","165","target","74"
"","","","","","audio-keyboard-response","184","477503","0.0-20.0-0.145","null","stim/audio_stimuli/walk.mp3","null","test","stim/audio_stimuli/walk.mp3","","","166","list",""
"","","","","","audio-keyboard-response","185","478521","0.0-20.0-0.146","null","stim/audio_stimuli/arm.mp3","null","test","stim/audio_stimuli/arm.mp3","","","167","list",""
"","","","","","audio-keyboard-response","186","479540","0.0-20.0-0.147","null","stim/audio_stimuli/inch.mp3","null","test","stim/audio_stimuli/inch.mp3","","","168","list",""
"","","","","","audio-keyboard-response","187","480554","0.0-20.0-0.148","null","stim/audio_stimuli/knee.mp3","null","test","stim/audio_stimuli/knee.mp3","","","169","list",""
"","","","","","audio-keyboard-response","188","482572","0.0-20.0-0.149","null","stim/audio_tones/tone_1.mp3","null","test","stim/audio_tones/tone_1.mp3","","","170","",""
"","","","","","audio-keyboard-response","189","485562","0.0-20.0-0.150","","","","test","stim/audio_stimuli/shoe.mp3","false","100","171","target","74"
"","","","","","audio-keyboard-response","190","485577","0.0-20.0-0.151","null","stim/audio_instructions/silence.mp3","null","test","stim/audio_instructions/silence.mp3","","","172","",""
"","","","","","audio-keyboard-response","191","489583","0.0-20.0-0.152","null","stim/audio_tones/tone_2.mp3","null","test","stim/audio_tones/tone_2.mp3","","","173","",""
"","","","","","audio-keyboard-response","192","489598","0.0-20.0-0.153","null","stim/audio_instructions/silence.mp3","null","test","stim/audio_instructions/silence.mp3","","","174","",""
"","","","","","audio-keyboard-response","193","490612","0.0-20.0-0.154","null","stim/audio_stimuli/hate.mp3","null","test","stim/audio_stimuli/hate.mp3","","","175","list",""
"","","","","","audio-keyboard-response","194","491630","0.0-20.0-0.155","null","stim/audio_stimuli/temper.mp3","null","test","stim/audio_stimuli/temper.mp3","","","176","list",""
"","","","","","audio-keyboard-response","195","492645","0.0-20.0-0.156","null","stim/audio_stimuli/ire.mp3","null","test","stim/audio_stimuli/ire.mp3","","","177","list",""
"","","","","","audio-keyboard-response","196","493651","0.0-20.0-0.157","null","stim/audio_stimuli/happy.mp3","null","test","stim/audio_stimuli/happy.mp3","","","178","list",""
"","","","","","audio-keyboard-response","197","494667","0.0-20.0-0.158","null","stim/audio_stimuli/hatred.mp3","null","test","stim/audio_stimuli/hatred.mp3","","","179","list",""
"","","","","","audio-keyboard-response","198","495673","0.0-20.0-0.159","null","stim/audio_stimuli/calm.mp3","null","test","stim/audio_stimuli/calm.mp3","","","180","list",""
"","","","","","audio-keyboard-response","199","497676","0.0-20.0-0.160","null","stim/audio_tones/tone_1.mp3","null","test","stim/audio_tones/tone_1.mp3","","","181","",""
"","","","","","audio-keyboard-response","200","500191","0.0-20.0-0.161","","","","test","stim/audio_stimuli/window.mp3","false","100","182","target","70"
"","","","","","audio-keyboard-response","201","500203","0.0-20.0-0.162","null","stim/audio_instructions/silence.mp3","null","test","stim/audio_instructions/silence.mp3","","","183","",""
"","","","","","audio-keyboard-response","202","504213","0.0-20.0-0.163","null","stim/audio_tones/tone_2.mp3","null","test","stim/audio_tones/tone_2.mp3","","","184","",""
"","","","","","audio-keyboard-response","203","504229","0.0-20.0-0.164","null","stim/audio_instructions/silence.mp3","null","test","stim/audio_instructions/silence.mp3","","","185","",""
"","","","","","audio-keyboard-response","204","505237","0.0-20.0-0.165","null","stim/audio_stimuli/jungle.mp3","null","test","stim/audio_stimuli/jungle.mp3","","","186","list",""
"","","","","","audio-keyboard-response","205","506255","0.0-20.0-0.166","null","stim/audio_stimuli/den.mp3","null","test","stim/audio_stimuli/den.mp3","","","187","list",""
"","","","","","audio-keyboard-response","206","507271","0.0-20.0-0.167","null","stim/audio_stimuli/africa.mp3","null","test","stim/audio_stimuli/africa.mp3","","","188","list",""
"","","","","","audio-keyboard-response","207","508275","0.0-20.0-0.168","null","stim/audio_stimuli/cage.mp3","null","test","stim/audio_stimuli/cage.mp3","","","189","list",""
"","","","","","audio-keyboard-response","208","509281","0.0-20.0-0.169","null","stim/audio_stimuli/roar.mp3","null","test","stim/audio_stimuli/roar.mp3","","","190","list",""
"","","","","","audio-keyboard-response","209","510288","0.0-20.0-0.170","null","stim/audio_stimuli/bears.mp3","null","test","stim/audio_stimuli/bears.mp3","","","191","list",""
"","","","","","audio-keyboard-response","210","512305","0.0-20.0-0.171","null","stim/audio_tones/tone_1.mp3","null","test","stim/audio_tones/tone_1.mp3","","","192","",""
"","","","","","audio-keyboard-response","211","515381","0.0-20.0-0.172","","","","test","stim/audio_stimuli/music.mp3","false","100","193","target","70"
"","","","","","audio-keyboard-response","212","515395","0.0-20.0-0.173","null","stim/audio_instructions/silence.mp3","null","test","stim/audio_instructions/silence.mp3","","","194","",""
"","","","","","audio-keyboard-response","213","519401","0.0-20.0-0.174","null","stim/audio_tones/tone_2.mp3","null","test","stim/audio_tones/tone_2.mp3","","","195","",""
"","","","","","audio-keyboard-response","214","519417","0.0-20.0-0.175","null","stim/audio_instructions/silence.mp3","null","test","stim/audio_instructions/silence.mp3","","","196","",""
"","","","","","audio-keyboard-response","215","520421","0.0-20.0-0.176","null","stim/audio_stimuli/eat.mp3","null","test","stim/audio_stimuli/eat.mp3","","","197","list",""
"","","","","","audio-keyboard-response","216","521434","0.0-20.0-0.177","null","stim/audio_stimuli/rye.mp3","null","test","stim/audio_stimuli/rye.mp3","","","198","list",""
"","","","","","audio-keyboard-response","217","522441","0.0-20.0-0.178","null","stim/audio_stimuli/milk.mp3","null","test","stim/audio_stimuli/milk.mp3","","","199","list",""
"","","","","","audio-keyboard-response","218","523445","0.0-20.0-0.179","null","stim/audio_stimuli/jelly.mp3","null","test","stim/audio_stimuli/jelly.mp3","","","200","list",""
"","","","","","audio-keyboard-response","219","524448","0.0-20.0-0.180","null","stim/audio_stimuli/crust.mp3","null","test","stim/audio_stimuli/crust.mp3","","","201","list",""
"","","","","","audio-keyboard-response","220","525462","0.0-20.0-0.181","null","stim/audio_stimuli/wine.mp3","null","test","stim/audio_stimuli/wine.mp3","","","202","list",""
"","","","","","audio-keyboard-response","221","527478","0.0-20.0-0.182","null","stim/audio_tones/tone_1.mp3","null","test","stim/audio_tones/tone_1.mp3","","","203","",""
"","","","","","audio-keyboard-response","222","530440","0.0-20.0-0.183","","","","test","stim/audio_stimuli/pencil.mp3","false","100","204","target","70"
"","","","","","audio-keyboard-response","223","530458","0.0-20.0-0.184","null","stim/audio_instructions/silence.mp3","null","test","stim/audio_instructions/silence.mp3","","","205","",""
"","","","","","audio-keyboard-response","224","534465","0.0-20.0-0.185","null","stim/audio_tones/tone_2.mp3","null","test","stim/audio_tones/tone_2.mp3","","","206","",""
"","","","","","audio-keyboard-response","225","534482","0.0-20.0-0.186","null","stim/audio_instructions/silence.mp3","null","test","stim/audio_instructions/silence.mp3","","","207","",""
"","","","","","audio-keyboard-response","226","535498","0.0-20.0-0.187","null","stim/audio_stimuli/toe.mp3","null","test","stim/audio_stimuli/toe.mp3","","","208","list",""
"","","","","","audio-keyboard-response","227","536515","0.0-20.0-0.188","null","stim/audio_stimuli/sandals.mp3","null","test","stim/audio_stimuli/sandals.mp3","","","209","list",""
"","","","","","audio-keyboard-response","228","537533","0.0-20.0-0.189","null","stim/audio_stimuli/yard.mp3","null","test","stim/audio_stimuli/yard.mp3","","","210","list",""
"","","","","","audio-keyboard-response","229","538538","0.0-20.0-0.190","null","stim/audio_stimuli/ankle.mp3","null","test","stim/audio_stimuli/ankle.mp3","","","211","list",""
"","","","","","audio-keyboard-response","230","539542","0.0-20.0-0.191","null","stim/audio_stimuli/boot.mp3","null","test","stim/audio_stimuli/boot.mp3","","","212","list",""
"","","","","","audio-keyboard-response","231","540557","0.0-20.0-0.192","null","stim/audio_stimuli/sock.mp3","null","test","stim/audio_stimuli/sock.mp3","","","213","list",""
"","","","","","audio-keyboard-response","232","542563","0.0-20.0-0.193","null","stim/audio_tones/tone_1.mp3","null","test","stim/audio_tones/tone_1.mp3","","","214","",""
"","","","","","audio-keyboard-response","233","545414","0.0-20.0-0.194","","","","test","stim/audio_stimuli/mad.mp3","false","100","215","target","70"
"","","","","","audio-keyboard-response","234","545428","0.0-20.0-0.195","null","stim/audio_instructions/silence.mp3","null","test","stim/audio_instructions/silence.mp3","","","216","",""
"","","","","","audio-keyboard-response","235","549446","0.0-20.0-0.196","null","stim/audio_tones/tone_2.mp3","null","test","stim/audio_tones/tone_2.mp3","","","217","",""
"","","","","","audio-keyboard-response","236","549461","0.0-20.0-0.197","null","stim/audio_instructions/silence.mp3","null","test","stim/audio_instructions/silence.mp3","","","218","",""
"","","","","","audio-keyboard-response","237","550473","0.0-20.0-0.198","null","stim/audio_stimuli/tea.mp3","null","test","stim/audio_stimuli/tea.mp3","","","219","list",""
"","","","","","audio-keyboard-response","238","551477","0.0-20.0-0.199","null","stim/audio_stimuli/coaster.mp3","null","test","stim/audio_stimuli/coaster.mp3","","","220","list",""
"","","","","","audio-keyboard-response","239","552491","0.0-20.0-0.200","null","stim/audio_stimuli/handle.mp3","null","test","stim/audio_stimuli/handle.mp3","","","221","list",""
"","","","","","audio-keyboard-response","240","553503","0.0-20.0-0.201","null","stim/audio_stimuli/straw.mp3","null","test","stim/audio_stimuli/straw.mp3","","","222","list",""
"","","","","","audio-keyboard-response","241","554517","0.0-20.0-0.202","null","stim/audio_stimuli/soup.mp3","null","test","stim/audio_stimuli/soup.mp3","","","223","list",""
"","","","","","audio-keyboard-response","242","555531","0.0-20.0-0.203","null","stim/audio_stimuli/drink.mp3","null","test","stim/audio_stimuli/drink.mp3","","","224","list",""
"","","","","","audio-keyboard-response","243","557547","0.0-20.0-0.204","null","stim/audio_tones/tone_1.mp3","null","test","stim/audio_tones/tone_1.mp3","","","225","",""
"","","","","","audio-keyboard-response","244","561124","0.0-20.0-0.205","","","","test","stim/audio_stimuli/tiger.mp3","false","100","226","target","70"
"","","","","","audio-keyboard-response","245","561138","0.0-20.0-0.206","null","stim/audio_instructions/silence.mp3","null","test","stim/audio_instructions/silence.mp3","","","227","",""
"","","","","","audio-keyboard-response","246","565155","0.0-20.0-0.207","null","stim/audio_tones/tone_2.mp3","null","test","stim/audio_tones/tone_2.mp3","","","228","",""
"","","","","","audio-keyboard-response","247","565172","0.0-20.0-0.208","null","stim/audio_instructions/silence.mp3","null","test","stim/audio_instructions/silence.mp3","","","229","",""
"","","","","","audio-keyboard-response","248","566179","0.0-20.0-0.209","null","stim/audio_stimuli/automobile.mp3","null","test","stim/audio_stimuli/automobile.mp3","","","230","list",""
"","","","","","audio-keyboard-response","249","567185","0.0-20.0-0.210","null","stim/audio_stimuli/drive.mp3","null","test","stim/audio_stimuli/drive.mp3","","","231","list",""
"","","","","","audio-keyboard-response","250","568192","0.0-20.0-0.211","null","stim/audio_stimuli/ford.mp3","null","test","stim/audio_stimuli/ford.mp3","","","232","list",""
"","","","","","audio-keyboard-response","251","569205","0.0-20.0-0.212","null","stim/audio_stimuli/keys.mp3","null","test","stim/audio_stimuli/keys.mp3","","","233","list",""
"","","","","","audio-keyboard-response","252","570223","0.0-20.0-0.213","null","stim/audio_stimuli/highway.mp3","null","test","stim/audio_stimuli/highway.mp3","","","234","list",""
"","","","","","audio-keyboard-response","253","571237","0.0-20.0-0.214","null","stim/audio_stimuli/van.mp3","null","test","stim/audio_stimuli/van.mp3","","","235","list",""
"","","","","","audio-keyboard-response","254","573249","0.0-20.0-0.215","null","stim/audio_tones/tone_1.mp3","null","test","stim/audio_tones/tone_1.mp3","","","236","",""
"","","","","","audio-keyboard-response","255","578257","0.0-20.0-0.216","null","stim/audio_stimuli/car.mp3","null","test","stim/audio_stimuli/car.mp3","false","3.7","237","target","70"
"","","","","","audio-keyboard-response","256","578271","0.0-20.0-0.217","null","stim/audio_instructions/silence.mp3","null","test","stim/audio_instructions/silence.mp3","","","238","",""
"","","","","","audio-keyboard-response","257","582285","0.0-20.0-0.218","null","stim/audio_tones/tone_2.mp3","null","test","stim/audio_tones/tone_2.mp3","","","239","",""
"","","","","","audio-keyboard-response","258","582302","0.0-20.0-0.219","null","stim/audio_instructions/silence.mp3","null","test","stim/audio_instructions/silence.mp3","","","240","",""
"","","","","","audio-keyboard-response","259","583314","0.0-20.0-0.220","null","stim/audio_stimuli/measuring.mp3","null","test","stim/audio_stimuli/measuring.mp3","","","241","list",""
"","","","","","audio-keyboard-response","260","584322","0.0-20.0-0.221","null","stim/audio_stimuli/mug.mp3","null","test","stim/audio_stimuli/mug.mp3","false","0","242","target","74"
"","","","","","audio-keyboard-response","261","585326","0.0-20.0-0.222","null","stim/audio_stimuli/coffee.mp3","null","test","stim/audio_stimuli/coffee.mp3","","","243","list",""
"","","","","","audio-keyboard-response","262","586340","0.0-20.0-0.223","null","stim/audio_stimuli/goblet.mp3","null","test","stim/audio_stimuli/goblet.mp3","","","244","list",""
"","","","","","audio-keyboard-response","263","587356","0.0-20.0-0.224","null","stim/audio_stimuli/stein.mp3","null","test","stim/audio_stimuli/stein.mp3","","","245","list",""
"","","","","","audio-keyboard-response","264","588370","0.0-20.0-0.225","null","stim/audio_stimuli/plastic.mp3","null","test","stim/audio_stimuli/plastic.mp3","","","246","list",""
"","","","","","audio-keyboard-response","265","590377","0.0-20.0-0.226","null","stim/audio_tones/tone_1.mp3","null","test","stim/audio_tones/tone_1.mp3","","","247","",""
"","","","","","audio-keyboard-response","266","593449","0.0-20.0-0.227","","","","test","stim/audio_stimuli/mug.mp3","false","100","248","target","74"
"","","","","","audio-keyboard-response","267","593463","0.0-20.0-0.228","null","stim/audio_instructions/silence.mp3","null","test","stim/audio_instructions/silence.mp3","","","249","",""
"","","","","","audio-keyboard-response","268","597466","0.0-20.0-0.229","null","stim/audio_tones/tone_2.mp3","null","test","stim/audio_tones/tone_2.mp3","","","250","",""
"","","","","","audio-keyboard-response","269","597482","0.0-20.0-0.230","null","stim/audio_instructions/silence.mp3","null","test","stim/audio_instructions/silence.mp3","","","251","",""
"","","","","","audio-keyboard-response","270","598490","0.0-20.0-0.231","null","stim/audio_stimuli/big2.mp3","null","test","stim/audio_stimuli/big2.mp3","","","252","list",""
"","","","","","audio-keyboard-response","271","599496","0.0-20.0-0.232","null","stim/audio_stimuli/fly.mp3 ","null","test","stim/audio_stimuli/fly.mp3 ","","","253","list",""
"","","","","","audio-keyboard-response","272","600511","0.0-20.0-0.233","null","stim/audio_stimuli/crawl.mp3","null","test","stim/audio_stimuli/crawl.mp3","","","254","list",""
"","","","","","audio-keyboard-response","273","601529","0.0-20.0-0.234","null","stim/audio_stimuli/poison.mp3","null","test","stim/audio_stimuli/poison.mp3","","","255","list",""
"","","","","","audio-keyboard-response","274","602540","0.0-20.0-0.235","null","stim/audio_stimuli/creepy.mp3","null","test","stim/audio_stimuli/creepy.mp3","","","256","list",""
"","","","","","audio-keyboard-response","275","603556","0.0-20.0-0.236","null","stim/audio_stimuli/ugly.mp3","null","test","stim/audio_stimuli/ugly.mp3","","","257","list",""
"","","","","","audio-keyboard-response","276","605562","0.0-20.0-0.237","null","stim/audio_tones/tone_1.mp3","null","test","stim/audio_tones/tone_1.mp3","","","258","",""
"","","","","","audio-keyboard-response","277","608628","0.0-20.0-0.238","","","","test","stim/audio_stimuli/truck.mp3","false","100","259","target","70"
"","","","","","audio-keyboard-response","278","608646","0.0-20.0-0.239","null","stim/audio_instructions/silence.mp3","null","test","stim/audio_instructions/silence.mp3","","","260","",""
"","","","","","audio-keyboard-response","279","612659","0.0-20.0-0.240","null","stim/audio_tones/tone_2.mp3","null","test","stim/audio_tones/tone_2.mp3","","","261","",""
"","","","","","audio-keyboard-response","280","612672","0.0-20.0-0.241","null","stim/audio_instructions/silence.mp3","null","test","stim/audio_instructions/silence.mp3","","","262","",""
"","","","","","audio-keyboard-response","281","613678","0.0-20.0-0.242","null","stim/audio_stimuli/awake.mp3","null","test","stim/audio_stimuli/awake.mp3","","","263","list",""
"","","","","","audio-keyboard-response","282","614690","0.0-20.0-0.243","null","stim/audio_stimuli/dream.mp3","null","test","stim/audio_stimuli/dream.mp3","","","264","list",""
"","","","","","audio-keyboard-response","283","615702","0.0-20.0-0.244","null","stim/audio_stimuli/snooze.mp3","null","test","stim/audio_stimuli/snooze.mp3","","","265","list",""
"","","","","","audio-keyboard-response","284","616711","0.0-20.0-0.245","null","stim/audio_stimuli/doze.mp3","null","test","stim/audio_stimuli/doze.mp3","","","266","list",""
"","","","","","audio-keyboard-response","285","617726","0.0-20.0-0.246","null","stim/audio_stimuli/snore.mp3","null","test","stim/audio_stimuli/snore.mp3","","","267","list",""
"","","","","","audio-keyboard-response","286","618742","0.0-20.0-0.247","null","stim/audio_stimuli/peace.mp3","null","test","stim/audio_stimuli/peace.mp3","","","268","list",""
"","","","","","audio-keyboard-response","287","620748","0.0-20.0-0.248","null","stim/audio_tones/tone_1.mp3","null","test","stim/audio_tones/tone_1.mp3","","","269","",""
"","","","","","audio-keyboard-response","288","625755","0.0-20.0-0.249","null","stim/audio_stimuli/thread.mp3","null","test","stim/audio_stimuli/thread.mp3","false","85.10000000000001","270","target","70"
"","","","","","audio-keyboard-response","289","625768","0.0-20.0-0.250","null","stim/audio_instructions/silence.mp3","null","test","stim/audio_instructions/silence.mp3","","","271","",""
"","","","","","audio-keyboard-response","290","629774","0.0-20.0-0.251","null","stim/audio_tones/tone_2.mp3","null","test","stim/audio_tones/tone_2.mp3","","","272","",""
"","","","","","audio-keyboard-response","291","629790","0.0-20.0-0.252","null","stim/audio_instructions/silence.mp3","null","test","stim/audio_instructions/silence.mp3","","","273","",""
"","","","","","audio-keyboard-response","292","630792","0.0-20.0-0.253","null","stim/audio_stimuli/fright.mp3","null","test","stim/audio_stimuli/fright.mp3","","","274","list",""
"","","","","","audio-keyboard-response","293","631794","0.0-20.0-0.254","null","stim/audio_stimuli/arachnid.mp3","null","test","stim/audio_stimuli/arachnid.mp3","","","275","list",""
"","","","","","audio-keyboard-response","294","632802","0.0-20.0-0.255","null","stim/audio_stimuli/web.mp3","null","test","stim/audio_stimuli/web.mp3","","","276","list",""
"","","","","","audio-keyboard-response","295","633810","0.0-20.0-0.256","null","stim/audio_stimuli/bite.mp3","null","test","stim/audio_stimuli/bite.mp3","","","277","list",""
"","","","","","audio-keyboard-response","296","634816","0.0-20.0-0.257","null","stim/audio_stimuli/animal.mp3","null","test","stim/audio_stimuli/animal.mp3","","","278","list",""
"","","","","","audio-keyboard-response","297","635832","0.0-20.0-0.258","null","stim/audio_stimuli/feelers.mp3","null","test","stim/audio_stimuli/feelers.mp3","","","279","list",""
"","","","","","audio-keyboard-response","298","637844","0.0-20.0-0.259","null","stim/audio_tones/tone_1.mp3","null","test","stim/audio_tones/tone_1.mp3","","","280","",""
"","","","","","audio-keyboard-response","299","642849","0.0-20.0-0.260","null","stim/audio_stimuli/web.mp3","null","test","stim/audio_stimuli/web.mp3","false","59.2","281","target","74"
"","","","","","audio-keyboard-response","300","642868","0.0-20.0-0.261","null","stim/audio_instructions/silence.mp3","null","test","stim/audio_instructions/silence.mp3","","","282","",""
"","","","","","audio-keyboard-response","301","646882","0.0-20.0-0.262","null","stim/audio_tones/tone_2.mp3","null","test","stim/audio_tones/tone_2.mp3","","","283","",""
"","","","","","audio-keyboard-response","302","646898","0.0-20.0-0.263","null","stim/audio_instructions/silence.mp3","null","test","stim/audio_instructions/silence.mp3","","","284","",""
"","","","","","audio-keyboard-response","303","647915","0.0-20.0-0.264","null","stim/audio_stimuli/train.mp3","null","test","stim/audio_stimuli/train.mp3","","","285","list",""
"","","","","","audio-keyboard-response","304","648921","0.0-20.0-0.265","null","stim/audio_stimuli/vehicle.mp3","null","test","stim/audio_stimuli/vehicle.mp3","","","286","list",""
"","","","","","audio-keyboard-response","305","649940","0.0-20.0-0.266","null","stim/audio_stimuli/jeep.mp3","null","test","stim/audio_stimuli/jeep.mp3","","","287","list",""
"","","","","","audio-keyboard-response","306","650955","0.0-20.0-0.267","null","stim/audio_stimuli/race.mp3","null","test","stim/audio_stimuli/race.mp3","","","288","list",""
"","","","","","audio-keyboard-response","307","651969","0.0-20.0-0.268","null","stim/audio_stimuli/garage.mp3","null","test","stim/audio_stimuli/garage.mp3","","","289","list",""
"","","","","","audio-keyboard-response","308","652986","0.0-20.0-0.269","null","stim/audio_stimuli/sedan.mp3","null","test","stim/audio_stimuli/sedan.mp3","","","290","list",""
"","","","","","audio-keyboard-response","309","654994","0.0-20.0-0.270","null","stim/audio_tones/tone_1.mp3","null","test","stim/audio_tones/tone_1.mp3","","","291","",""
"","","","","","audio-keyboard-response","310","657797","0.0-20.0-0.271","","","","test","stim/audio_stimuli/high.mp3","false","100","292","target","70"
"","","","","","audio-keyboard-response","311","657814","0.0-20.0-0.272","null","stim/audio_instructions/silence.mp3","null","test","stim/audio_instructions/silence.mp3","","","293","",""
"","","","","","audio-keyboard-response","312","661820","0.0-20.0-0.273","null","stim/audio_tones/tone_2.mp3","null","test","stim/audio_tones/tone_2.mp3","","","294","",""
"","","","","","audio-keyboard-response","313","661837","0.0-20.0-0.274","null","stim/audio_instructions/silence.mp3","null","test","stim/audio_instructions/silence.mp3","","","295","",""
"","","","","","audio-keyboard-response","314","662847","0.0-20.0-0.275","null","stim/audio_stimuli/tired.mp3","null","test","stim/audio_stimuli/tired.mp3","","","296","list",""
"","","","","","audio-keyboard-response","315","663853","0.0-20.0-0.276","null","stim/audio_stimuli/wake.mp3","null","test","stim/audio_stimuli/wake.mp3","","","297","list",""
"","","","","","audio-keyboard-response","316","664857","0.0-20.0-0.277","null","stim/audio_stimuli/bed.mp3","null","test","stim/audio_stimuli/bed.mp3","false","0","298","target","74"
"","","","","","audio-keyboard-response","317","665874","0.0-20.0-0.278","null","stim/audio_stimuli/slumber.mp3","null","test","stim/audio_stimuli/slumber.mp3","","","299","list",""
"","","","","","audio-keyboard-response","318","666885","0.0-20.0-0.279","null","stim/audio_stimuli/nap.mp3","null","test","stim/audio_stimuli/nap.mp3","","","300","list",""
"","","","","","audio-keyboard-response","319","667895","0.0-20.0-0.280","null","stim/audio_stimuli/yawn.mp3","null","test","stim/audio_stimuli/yawn.mp3","","","301","list",""
"","","","","","audio-keyboard-response","320","669912","0.0-20.0-0.281","null","stim/audio_tones/tone_1.mp3","null","test","stim/audio_tones/tone_1.mp3","","","302","",""
"","","","","","audio-keyboard-response","321","674921","0.0-20.0-0.282","null","stim/audio_stimuli/bed.mp3","null","test","stim/audio_stimuli/bed.mp3","false","48.1","303","target","74"
"","","","","","audio-keyboard-response","322","674935","0.0-20.0-0.283","null","stim/audio_instructions/silence.mp3","null","test","stim/audio_instructions/silence.mp3","","","304","",""
"","","","","","audio-keyboard-response","323","678940","0.0-20.0-0.284","null","stim/audio_tones/tone_2.mp3","null","test","stim/audio_tones/tone_2.mp3","","","305","",""
"","","","","","audio-keyboard-response","324","678956","0.0-20.0-0.285","null","stim/audio_instructions/silence.mp3","null","test","stim/audio_instructions/silence.mp3","","","306","",""
"","","","","","audio-keyboard-response","325","679964","0.0-20.0-0.286","null","stim/audio_stimuli/kiwi.mp3","null","test","stim/audio_stimuli/kiwi.mp3","","","307","list",""
"","","","","","audio-keyboard-response","326","680977","0.0-20.0-0.287","null","stim/audio_stimuli/ripe.mp3","null","test","stim/audio_stimuli/ripe.mp3","","","308","list",""
"","","","","","audio-keyboard-response","327","681995","0.0-20.0-0.288","null","stim/audio_stimuli/apple.mp3","null","test","stim/audio_stimuli/apple.mp3","false","0","309","target","74"
"","","","","","audio-keyboard-response","328","683000","0.0-20.0-0.289","null","stim/audio_stimuli/cherry.mp3","null","test","stim/audio_stimuli/cherry.mp3","","","310","list",""
"","","","","","audio-keyboard-response","329","684013","0.0-20.0-0.290","null","stim/audio_stimuli/juice.mp3","null","test","stim/audio_stimuli/juice.mp3","","","311","list",""
"","","","","","audio-keyboard-response","330","685025","0.0-20.0-0.291","null","stim/audio_stimuli/bowl.mp3","null","test","stim/audio_stimuli/bowl.mp3","","","312","list",""
"","","","","","audio-keyboard-response","331","687031","0.0-20.0-0.292","null","stim/audio_tones/tone_1.mp3","null","test","stim/audio_tones/tone_1.mp3","","","313","",""
"","","","","","audio-keyboard-response","332","689962","0.0-20.0-0.293","","","","test","stim/audio_stimuli/apple.mp3","false","100","314","target","74"
"","","","","","audio-keyboard-response","333","689975","0.0-20.0-0.294","null","stim/audio_instructions/silence.mp3","null","test","stim/audio_instructions/silence.mp3","","","315","",""
"","","","","","audio-keyboard-response","334","693989","0.0-20.0-0.295","null","stim/audio_tones/tone_2.mp3","null","test","stim/audio_tones/tone_2.mp3","","","316","",""
"","","","","","audio-keyboard-response","335","694006","0.0-20.0-0.296","null","stim/audio_instructions/silence.mp3","null","test","stim/audio_instructions/silence.mp3","","","317","",""
"","","","","","audio-keyboard-response","336","695011","0.0-20.0-0.297","null","stim/audio_stimuli/eye.mp3","null","test","stim/audio_stimuli/eye.mp3","","","318","list",""
"","","","","","audio-keyboard-response","337","696017","0.0-20.0-0.298","null","stim/audio_stimuli/sharp.mp3","null","test","stim/audio_stimuli/sharp.mp3","","","319","list",""
"","","","","","audio-keyboard-response","338","697023","0.0-20.0-0.299","null","stim/audio_stimuli/prick.mp3","null","test","stim/audio_stimuli/prick.mp3","","","320","list",""
"","","","","","audio-keyboard-response","339","698040","0.0-20.0-0.300","null","stim/audio_stimuli/haystack.mp3","null","test","stim/audio_stimuli/haystack.mp3","","","321","list",""
"","","","","","audio-keyboard-response","340","699054","0.0-20.0-0.301","null","stim/audio_stimuli/hurt.mp3","null","test","stim/audio_stimuli/hurt.mp3","","","322","list",""
"","","","","","audio-keyboard-response","341","700066","0.0-20.0-0.302","null","stim/audio_stimuli/syringe.mp3","null","test","stim/audio_stimuli/syringe.mp3","","","323","list",""
"","","","","","audio-keyboard-response","342","702073","0.0-20.0-0.303","null","stim/audio_tones/tone_1.mp3","null","test","stim/audio_tones/tone_1.mp3","","","324","",""
"","","","","","audio-keyboard-response","343","707092","0.0-20.0-0.304","null","stim/audio_stimuli/flag.mp3","null","test","stim/audio_stimuli/flag.mp3","false","29.599999999999998","325","target","70"
"","","","","","audio-keyboard-response","344","707107","0.0-20.0-0.305","null","stim/audio_instructions/silence.mp3","null","test","stim/audio_instructions/silence.mp3","","","326","",""
"","","","","","audio-keyboard-response","345","711123","0.0-20.0-0.306","null","stim/audio_tones/tone_2.mp3","null","test","stim/audio_tones/tone_2.mp3","","","327","",""
"","","","","","audio-keyboard-response","346","711139","0.0-20.0-0.307","null","stim/audio_instructions/silence.mp3","null","test","stim/audio_instructions/silence.mp3","","","328","",""
"","","","","","audio-keyboard-response","347","712142","0.0-20.0-0.308","null","stim/audio_stimuli/orange.mp3","null","test","stim/audio_stimuli/orange.mp3","","","329","list",""
"","","","","","audio-keyboard-response","348","713145","0.0-20.0-0.309","null","stim/audio_stimuli/citrus.mp3","null","test","stim/audio_stimuli/citrus.mp3","","","330","list",""
"","","","","","audio-keyboard-response","349","714164","0.0-20.0-0.310","null","stim/audio_stimuli/pear.mp3","null","test","stim/audio_stimuli/pear.mp3","","","331","list",""
"","","","","","audio-keyboard-response","350","715167","0.0-20.0-0.311","null","stim/audio_stimuli/berry.mp3","null","test","stim/audio_stimuli/berry.mp3","","","332","list",""
"","","","","","audio-keyboard-response","351","716185","0.0-20.0-0.312","null","stim/audio_stimuli/basket.mp3","null","test","stim/audio_stimuli/basket.mp3","","","333","list",""
"","","","","","audio-keyboard-response","352","717189","0.0-20.0-0.313","null","stim/audio_stimuli/salad.mp3","null","test","stim/audio_stimuli/salad.mp3","","","334","list",""
"","","","","","audio-keyboard-response","353","719193","0.0-20.0-0.314","null","stim/audio_tones/tone_1.mp3","null","test","stim/audio_tones/tone_1.mp3","","","335","",""
"","","","","","audio-keyboard-response","354","724199","0.0-20.0-0.315","null","stim/audio_stimuli/smooth.mp3","null","test","stim/audio_stimuli/smooth.mp3","false","59.2","336","target","70"
"","","","","","audio-keyboard-response","355","724214","0.0-20.0-0.316","null","stim/audio_instructions/silence.mp3","null","test","stim/audio_instructions/silence.mp3","","","337","",""
"","","","","","audio-keyboard-response","356","728220","0.0-20.0-0.317","null","stim/audio_tones/tone_2.mp3","null","test","stim/audio_tones/tone_2.mp3","","","338","",""
"","","","","","audio-keyboard-response","357","728236","0.0-20.0-0.318","null","stim/audio_instructions/silence.mp3","null","test","stim/audio_instructions/silence.mp3","","","339","",""
"","","","","","audio-keyboard-response","358","729245","0.0-20.0-0.319","null","stim/audio_stimuli/road.mp3","null","test","stim/audio_stimuli/road.mp3","","","340","list",""
"","","","","","audio-keyboard-response","359","730255","0.0-20.0-0.320","null","stim/audio_stimuli/sandpaper.mp3","null","test","stim/audio_stimuli/sandpaper.mp3","","","341","list",""
"","","","","","audio-keyboard-response","360","731263","0.0-20.0-0.321","null","stim/audio_stimuli/ready.mp3","null","test","stim/audio_stimuli/ready.mp3","","","342","list",""
"","","","","","audio-keyboard-response","361","732282","0.0-20.0-0.322","null","stim/audio_stimuli/uneven.mp3","null","test","stim/audio_stimuli/uneven.mp3","","","343","list",""
"","","","","","audio-keyboard-response","362","733300","0.0-20.0-0.323","null","stim/audio_stimuli/rugged.mp3","null","test","stim/audio_stimuli/rugged.mp3","","","344","list",""
"","","","","","audio-keyboard-response","363","734303","0.0-20.0-0.324","null","stim/audio_stimuli/boards.mp3","null","test","stim/audio_stimuli/boards.mp3","","","345","list",""
"","","","","","audio-keyboard-response","364","736319","0.0-20.0-0.325","null","stim/audio_tones/tone_1.mp3","null","test","stim/audio_tones/tone_1.mp3","","","346","",""
"","","","","","audio-keyboard-response","365","739708","0.0-20.0-0.326","","","","test","stim/audio_stimuli/river.mp3","false","100","347","target","70"
"","","","","","audio-keyboard-response","366","739721","0.0-20.0-0.327","null","stim/audio_instructions/silence.mp3","null","test","stim/audio_instructions/silence.mp3","","","348","",""
"","","","","","audio-keyboard-response","367","743727","0.0-20.0-0.328","null","stim/audio_tones/tone_2.mp3","null","test","stim/audio_tones/tone_2.mp3","","","349","",""
"","","","","","audio-keyboard-response","368","743743","0.0-20.0-0.329","null","stim/audio_instructions/silence.mp3","null","test","stim/audio_instructions/silence.mp3","","","350","",""
"","","","","","audio-keyboard-response","369","744761","0.0-20.0-0.330","null","stim/audio_stimuli/sewing.mp3","null","test","stim/audio_stimuli/sewing.mp3","","","351","list",""
"","","","","","audio-keyboard-response","370","745774","0.0-20.0-0.331","null","stim/audio_stimuli/point.mp3","null","test","stim/audio_stimuli/point.mp3","","","352","list",""
"","","","","","audio-keyboard-response","371","746784","0.0-20.0-0.332","null","stim/audio_stimuli/thimble.mp3","null","test","stim/audio_stimuli/thimble.mp3","","","353","list",""
"","","","","","audio-keyboard-response","372","747792","0.0-20.0-0.333","null","stim/audio_stimuli/thorn.mp3","null","test","stim/audio_stimuli/thorn.mp3","","","354","list",""
"","","","","","audio-keyboard-response","373","748807","0.0-20.0-0.334","null","stim/audio_stimuli/injection.mp3","null","test","stim/audio_stimuli/injection.mp3","","","355","list",""
"","","","","","audio-keyboard-response","374","749812","0.0-20.0-0.335","null","stim/audio_stimuli/cloth.mp3","null","test","stim/audio_stimuli/cloth.mp3","","","356","list",""
"","","","","","audio-keyboard-response","375","751827","0.0-20.0-0.336","null","stim/audio_tones/tone_1.mp3","null","test","stim/audio_tones/tone_1.mp3","","","357","",""
"","","","","","audio-keyboard-response","376","756841","0.0-20.0-0.337","null","stim/audio_stimuli/needle.mp3","null","test","stim/audio_stimuli/needle.mp3","false","22.2","358","target","70"
"","","","","","audio-keyboard-response","377","756857","0.0-20.0-0.338","null","stim/audio_instructions/silence.mp3","null","test","stim/audio_instructions/silence.mp3","","","359","",""
"","","","","","audio-keyboard-response","378","760871","0.0-20.0-0.339","null","stim/audio_tones/tone_2.mp3","null","test","stim/audio_tones/tone_2.mp3","","","360","",""
"","","","","","audio-keyboard-response","379","760887","0.0-20.0-0.340","null","stim/audio_instructions/silence.mp3","null","test","stim/audio_instructions/silence.mp3","","","361","",""
"","","","","","audio-keyboard-response","380","761897","0.0-20.0-0.341","null","stim/audio_stimuli/gloves.mp3","null","test","stim/audio_stimuli/gloves.mp3","","","362","list",""
"","","","","","audio-keyboard-response","381","762912","0.0-20.0-0.342","null","stim/audio_stimuli/ball.mp3","null","test","stim/audio_stimuli/ball.mp3","","","363","list",""
"","","","","","audio-keyboard-response","382","763929","0.0-20.0-0.343","null","stim/audio_stimuli/springy.mp3","null","test","stim/audio_stimuli/springy.mp3","","","364","list",""
"","","","","","audio-keyboard-response","383","764939","0.0-20.0-0.344","null","stim/audio_stimuli/galoshes.mp3","null","test","stim/audio_stimuli/galoshes.mp3","","","365","list",""
"","","","","","audio-keyboard-response","384","765953","0.0-20.0-0.345","null","stim/audio_stimuli/latex.mp3","null","test","stim/audio_stimuli/latex.mp3","","","366","list",""
"","","","","","audio-keyboard-response","385","766959","0.0-20.0-0.346","null","stim/audio_stimuli/flexible.mp3","null","test","stim/audio_stimuli/flexible.mp3","","","367","list",""
"","","","","","audio-keyboard-response","386","768976","0.0-20.0-0.347","null","stim/audio_tones/tone_1.mp3","null","test","stim/audio_tones/tone_1.mp3","","","368","",""
"","","","","","audio-keyboard-response","387","773980","0.0-20.0-0.348","null","stim/audio_stimuli/shirt.mp3","null","test","stim/audio_stimuli/shirt.mp3","false","85.10000000000001","369","target","70"
"","","","","","audio-keyboard-response","388","773994","0.0-20.0-0.349","null","stim/audio_instructions/silence.mp3","null","test","stim/audio_instructions/silence.mp3","","","370","",""
"","","","","","audio-keyboard-response","389","778005","0.0-20.0-0.350","null","stim/audio_tones/tone_2.mp3","null","test","stim/audio_tones/tone_2.mp3","","","371","",""
"","","","","","audio-keyboard-response","390","778022","0.0-20.0-0.351","null","stim/audio_instructions/silence.mp3","null","test","stim/audio_instructions/silence.mp3","","","372","",""
"","","","","","audio-keyboard-response","391","779032","0.0-20.0-0.352","null","stim/audio_stimuli/pants.mp3","null","test","stim/audio_stimuli/pants.mp3","","","373","list",""
"","","","","","audio-keyboard-response","392","780043","0.0-20.0-0.353","null","stim/audio_stimuli/button.mp3","null","test","stim/audio_stimuli/button.mp3","","","374","list",""
"","","","","","audio-keyboard-response","393","781054","0.0-20.0-0.354","null","stim/audio_stimuli/iron.mp3","null","test","stim/audio_stimuli/iron.mp3","","","375","list",""
"","","","","","audio-keyboard-response","394","782071","0.0-20.0-0.355","null","stim/audio_stimuli/collar.mp3","null","test","stim/audio_stimuli/collar.mp3","","","376","list",""
"","","","","","audio-keyboard-response","395","783080","0.0-20.0-0.356","null","stim/audio_stimuli/pocket.mp3","null","test","stim/audio_stimuli/pocket.mp3","","","377","list",""
"","","","","","audio-keyboard-response","396","784087","0.0-20.0-0.357","null","stim/audio_stimuli/belt.mp3","null","test","stim/audio_stimuli/belt.mp3","","","378","list",""
"","","","","","audio-keyboard-response","397","786101","0.0-20.0-0.358","null","stim/audio_tones/tone_1.mp3","null","test","stim/audio_tones/tone_1.mp3","","","379","",""
"","","","","","audio-keyboard-response","398","791109","0.0-20.0-0.359","null","stim/audio_stimuli/rubber.mp3","null","test","stim/audio_stimuli/rubber.mp3","false","77.7","380","target","70"
"","","","","","audio-keyboard-response","399","791123","0.0-20.0-0.360","null","stim/audio_instructions/silence.mp3","null","test","stim/audio_instructions/silence.mp3","","","381","",""
"","","","","","audio-keyboard-response","400","795128","0.0-20.0-0.361","null","stim/audio_tones/tone_2.mp3","null","test","stim/audio_tones/tone_2.mp3","","","382","",""
"","","","","","audio-keyboard-response","401","795144","0.0-20.0-0.362","null","stim/audio_instructions/silence.mp3","null","test","stim/audio_instructions/silence.mp3","","","383","",""
"","","","","","audio-keyboard-response","402","796158","0.0-20.0-0.363","null","stim/audio_stimuli/tough.mp3","null","test","stim/audio_stimuli/tough.mp3","","","384","list",""
"","","","","","audio-keyboard-response","403","797174","0.0-20.0-0.364","null","stim/audio_stimuli/jagged.mp3","null","test","stim/audio_stimuli/jagged.mp3","","","385","list",""
"","","","","","audio-keyboard-response","404","798189","0.0-20.0-0.365","null","stim/audio_stimuli/coarse.mp3","null","test","stim/audio_stimuli/coarse.mp3","","","386","list",""
"","","","","","audio-keyboard-response","405","799207","0.0-20.0-0.366","null","stim/audio_stimuli/riders.mp3","null","test","stim/audio_stimuli/riders.mp3","","","387","list",""
"","","","","","audio-keyboard-response","406","800217","0.0-20.0-0.367","null","stim/audio_stimuli/sand.mp3","null","test","stim/audio_stimuli/sand.mp3","","","388","list",""
"","","","","","audio-keyboard-response","407","801237","0.0-20.0-0.368","null","stim/audio_stimuli/ground.mp3","null","test","stim/audio_stimuli/ground.mp3","","","389","list",""
"","","","","","audio-keyboard-response","408","803244","0.0-20.0-0.369","null","stim/audio_tones/tone_1.mp3","null","test","stim/audio_tones/tone_1.mp3","","","390","",""
"","","","","","audio-keyboard-response","409","808262","0.0-20.0-0.370","null","stim/audio_stimuli/rough.mp3","null","test","stim/audio_stimuli/rough.mp3","false","3.7","391","target","70"
"","","","","","audio-keyboard-response","410","808277","0.0-20.0-0.371","null","stim/audio_instructions/silence.mp3","null","test","stim/audio_instructions/silence.mp3","","","392","",""
"","","","","","audio-keyboard-response","411","812291","0.0-20.0-0.372","null","stim/audio_tones/tone_2.mp3","null","test","stim/audio_tones/tone_2.mp3","","","393","",""
"","","","","","audio-keyboard-response","412","812306","0.0-20.0-0.373","null","stim/audio_instructions/silence.mp3","null","test","stim/audio_instructions/silence.mp3","","","394","",""
"","","","","","audio-keyboard-response","413","813316","0.0-20.0-0.374","null","stim/audio_stimuli/female.mp3","null","test","stim/audio_stimuli/female.mp3","","","395","list",""
"","","","","","audio-keyboard-response","414","814331","0.0-20.0-0.375","null","stim/audio_stimuli/dress.mp3","null","test","stim/audio_stimuli/dress.mp3","","","396","list",""
"","","","","","audio-keyboard-response","415","815349","0.0-20.0-0.376","null","stim/audio_stimuli/hair.mp3","null","test","stim/audio_stimuli/hair.mp3","","","397","list",""
"","","","","","audio-keyboard-response","416","816361","0.0-20.0-0.377","null","stim/audio_stimuli/dance.mp3","null","test","stim/audio_stimuli/dance.mp3","","","398","list",""
"","","","","","audio-keyboard-response","417","817375","0.0-20.0-0.378","null","stim/audio_stimuli/cute.mp3","null","test","stim/audio_stimuli/cute.mp3","","","399","list",""
"","","","","","audio-keyboard-response","418","818382","0.0-20.0-0.379","null","stim/audio_stimuli/aunt.mp3","null","test","stim/audio_stimuli/aunt.mp3","","","400","list",""
"","","","","","audio-keyboard-response","419","820385","0.0-20.0-0.380","null","stim/audio_tones/tone_1.mp3","null","test","stim/audio_tones/tone_1.mp3","","","401","",""
"","","","","","audio-keyboard-response","420","823599","0.0-20.0-0.381","","","","test","stim/audio_stimuli/elastic.mp3","false","100","402","target","70"
"","","","","","audio-keyboard-response","421","823615","0.0-20.0-0.382","null","stim/audio_instructions/silence.mp3","null","test","stim/audio_instructions/silence.mp3","","","403","",""
"","","","","","audio-keyboard-response","422","827633","0.0-20.0-0.383","null","stim/audio_tones/tone_2.mp3","null","test","stim/audio_tones/tone_2.mp3","","","404","",""
"","","","","","audio-keyboard-response","423","827645","0.0-20.0-0.384","null","stim/audio_instructions/silence.mp3","null","test","stim/audio_instructions/silence.mp3","","","405","",""
"","","","","","audio-keyboard-response","424","828661","0.0-20.0-0.385","null","stim/audio_stimuli/young.mp3","null","test","stim/audio_stimuli/young.mp3","","","406","list",""
"","","","","","audio-keyboard-response","425","829678","0.0-20.0-0.386","null","stim/audio_stimuli/pretty.mp3","null","test","stim/audio_stimuli/pretty.mp3","","","407","list",""
"","","","","","audio-keyboard-response","426","830692","0.0-20.0-0.387","null","stim/audio_stimuli/boy.mp3","null","test","stim/audio_stimuli/boy.mp3","false","0","408","target","74"
"","","","","","audio-keyboard-response","427","831701","0.0-20.0-0.388","null","stim/audio_stimuli/beautiful.mp3","null","test","stim/audio_stimuli/beautiful.mp3","","","409","list",""
"","","","","","audio-keyboard-response","428","832709","0.0-20.0-0.389","null","stim/audio_stimuli/date.mp3","null","test","stim/audio_stimuli/date.mp3","","","410","list",""
"","","","","","audio-keyboard-response","429","833716","0.0-20.0-0.390","null","stim/audio_stimuli/daughter.mp3","null","test","stim/audio_stimuli/daughter.mp3","","","411","list",""
"","","","","","audio-keyboard-response","430","835726","0.0-20.0-0.391","null","stim/audio_tones/tone_1.mp3","null","test","stim/audio_tones/tone_1.mp3","","","412","",""
"","","","","","audio-keyboard-response","431","838500","0.0-20.0-0.392","","","","test","stim/audio_stimuli/boy.mp3","false","100","413","target","74"
"","","","","","audio-keyboard-response","432","838514","0.0-20.0-0.393","null","stim/audio_instructions/silence.mp3","null","test","stim/audio_instructions/silence.mp3","","","414","",""
"","","","","","audio-keyboard-response","433","842519","0.0-20.0-0.394","null","stim/audio_tones/tone_2.mp3","null","test","stim/audio_tones/tone_2.mp3","","","415","",""
"","","","","","audio-keyboard-response","434","842534","0.0-20.0-0.395","null","stim/audio_instructions/silence.mp3","null","test","stim/audio_instructions/silence.mp3","","","416","",""
"","","","","","audio-keyboard-response","435","843542","0.0-20.0-0.396","null","stim/audio_stimuli/climb.mp3","null","test","stim/audio_stimuli/climb.mp3","","","417","list",""
"","","","","","audio-keyboard-response","436","844559","0.0-20.0-0.397","null","stim/audio_stimuli/top2.mp3","null","test","stim/audio_stimuli/top2.mp3","","","418","list",""
"","","","","","audio-keyboard-response","437","845563","0.0-20.0-0.398","null","stim/audio_stimuli/peak.mp3","null","test","stim/audio_stimuli/peak.mp3","","","419","list",""
"","","","","","audio-keyboard-response","438","846579","0.0-20.0-0.399","null","stim/audio_stimuli/glacier.mp3","null","test","stim/audio_stimuli/glacier.mp3","","","420","list",""
"","","","","","audio-keyboard-response","439","847592","0.0-20.0-0.400","null","stim/audio_stimuli/bike.mp3","null","test","stim/audio_stimuli/bike.mp3","","","421","list",""
"","","","","","audio-keyboard-response","440","848597","0.0-20.0-0.401","null","stim/audio_stimuli/range.mp3","null","test","stim/audio_stimuli/range.mp3","","","422","list",""
"","","","","","audio-keyboard-response","441","850601","0.0-20.0-0.402","null","stim/audio_tones/tone_1.mp3","null","test","stim/audio_tones/tone_1.mp3","","","423","",""
"","","","","","audio-keyboard-response","442","853560","0.0-20.0-0.403","","","","test","stim/audio_stimuli/blouse.mp3","false","100","424","target","70"
"","","","","","audio-keyboard-response","443","853576","0.0-20.0-0.404","null","stim/audio_instructions/silence.mp3","null","test","stim/audio_instructions/silence.mp3","","","425","",""
"","","","","","audio-keyboard-response","444","857584","0.0-20.0-0.405","null","stim/audio_tones/tone_2.mp3","null","test","stim/audio_tones/tone_2.mp3","","","426","",""
"","","","","","audio-keyboard-response","445","857600","0.0-20.0-0.406","null","stim/audio_instructions/silence.mp3","null","test","stim/audio_instructions/silence.mp3","","","427","",""
"","","","","","audio-keyboard-response","446","858607","0.0-20.0-0.407","null","stim/audio_stimuli/tire.mp3","null","test","stim/audio_stimuli/tire.mp3","","","428","list",""
"","","","","","audio-keyboard-response","447","859615","0.0-20.0-0.408","null","stim/audio_stimuli/eraser.mp3","null","test","stim/audio_stimuli/eraser.mp3","","","429","list",""
"","","","","","audio-keyboard-response","448","860623","0.0-20.0-0.409","null","stim/audio_stimuli/foam.mp3","null","test","stim/audio_stimuli/foam.mp3","","","430","list",""
"","","","","","audio-keyboard-response","449","861641","0.0-20.0-0.410","null","stim/audio_stimuli/soles.mp3","null","test","stim/audio_stimuli/soles.mp3","","","431","list",""
"","","","","","audio-keyboard-response","450","862656","0.0-20.0-0.411","null","stim/audio_stimuli/glue.mp3","null","test","stim/audio_stimuli/glue.mp3","","","432","list",""
"","","","","","audio-keyboard-response","451","863669","0.0-20.0-0.412","null","stim/audio_stimuli/resilient.mp3","null","test","stim/audio_stimuli/resilient.mp3","","","433","list",""
"","","","","","audio-keyboard-response","452","865688","0.0-20.0-0.413","null","stim/audio_tones/tone_1.mp3","null","test","stim/audio_tones/tone_1.mp3","","","434","",""
"","","","","","audio-keyboard-response","453","870701","0.0-20.0-0.414","null","stim/audio_stimuli/rubber.mp3","null","test","stim/audio_stimuli/rubber.mp3","false","3.7","435","target","70"
"","","","","","audio-keyboard-response","454","870716","0.0-20.0-0.415","null","stim/audio_instructions/silence.mp3","null","test","stim/audio_instructions/silence.mp3","","","436","",""
"","","","","","audio-keyboard-response","455","874729","0.0-20.0-0.416","null","stim/audio_tones/tone_2.mp3","null","test","stim/audio_tones/tone_2.mp3","","","437","",""
"","","","","","audio-keyboard-response","456","874745","0.0-20.0-0.417","null","stim/audio_instructions/silence.mp3","null","test","stim/audio_instructions/silence.mp3","","","438","",""
"","","","","","audio-keyboard-response","457","875760","0.0-20.0-0.418","null","stim/audio_stimuli/can.mp3","null","test","stim/audio_stimuli/can.mp3","","","439","list",""
"","","","","","audio-keyboard-response","458","876765","0.0-20.0-0.419","null","stim/audio_stimuli/sewage.mp3","null","test","stim/audio_stimuli/sewage.mp3","","","440","list",""
"","","","","","audio-keyboard-response","459","877781","0.0-20.0-0.420","null","stim/audio_stimuli/junk.mp3","null","test","stim/audio_stimuli/junk.mp3","","","441","list",""
"","","","","","audio-keyboard-response","460","878787","0.0-20.0-0.421","null","stim/audio_stimuli/sweep.mp3","null","test","stim/audio_stimuli/sweep.mp3","","","442","list",""
"","","","","","audio-keyboard-response","461","879793","0.0-20.0-0.422","null","stim/audio_stimuli/pile.mp3","null","test","stim/audio_stimuli/pile.mp3","","","443","list",""
"","","","","","audio-keyboard-response","462","880808","0.0-20.0-0.423","null","stim/audio_stimuli/landfill.mp3","null","test","stim/audio_stimuli/landfill.mp3","","","444","list",""
"","","","","","audio-keyboard-response","463","882812","0.0-20.0-0.424","null","stim/audio_tones/tone_1.mp3","null","test","stim/audio_tones/tone_1.mp3","","","445","",""
"","","","","","audio-keyboard-response","464","887828","0.0-20.0-0.425","null","stim/audio_stimuli/water.mp3","null","test","stim/audio_stimuli/water.mp3","false","66.6","446","target","70"
"","","","","","audio-keyboard-response","465","887851","0.0-20.0-0.426","null","stim/audio_instructions/silence.mp3","null","test","stim/audio_instructions/silence.mp3","","","447","",""
"","","","","","audio-keyboard-response","466","891861","0.0-20.0-0.427","null","stim/audio_tones/tone_2.mp3","null","test","stim/audio_tones/tone_2.mp3","","","448","",""
"","","","","","audio-keyboard-response","467","891877","0.0-20.0-0.428","null","stim/audio_instructions/silence.mp3","null","test","stim/audio_instructions/silence.mp3","","","449","",""
"","","","","","audio-keyboard-response","468","892883","0.0-20.0-0.429","null","stim/audio_stimuli/summit.mp3","null","test","stim/audio_stimuli/summit.mp3","","","450","list",""
"","","","","","audio-keyboard-response","469","893898","0.0-20.0-0.430","null","stim/audio_stimuli/molehill.mp3","null","test","stim/audio_stimuli/molehill.mp3","","","451","list",""
"","","","","","audio-keyboard-response","470","894910","0.0-20.0-0.431","null","stim/audio_stimuli/plain.mp3","null","test","stim/audio_stimuli/plain.mp3","","","452","list",""
"","","","","","audio-keyboard-response","471","895914","0.0-20.0-0.432","null","stim/audio_stimuli/hill.mp3","null","test","stim/audio_stimuli/hill.mp3","","","453","list",""
"","","","","","audio-keyboard-response","472","896920","0.0-20.0-0.433","null","stim/audio_stimuli/climber.mp3","null","test","stim/audio_stimuli/climber.mp3","","","454","list",""
"","","","","","audio-keyboard-response","473","897933","0.0-20.0-0.434","null","stim/audio_stimuli/steep.mp3","null","test","stim/audio_stimuli/steep.mp3","","","455","list",""
"","","","","","audio-keyboard-response","474","899937","0.0-20.0-0.435","null","stim/audio_tones/tone_1.mp3","null","test","stim/audio_tones/tone_1.mp3","","","456","",""
"","","","","","audio-keyboard-response","475","902716","0.0-20.0-0.436","","","","test","stim/audio_stimuli/hill.mp3","false","100","457","target","74"
"","","","","","audio-keyboard-response","476","902728","0.0-20.0-0.437","null","stim/audio_instructions/silence.mp3","null","test","stim/audio_instructions/silence.mp3","","","458","",""
"","","","","","audio-keyboard-response","477","906742","0.0-20.0-0.438","null","stim/audio_tones/tone_2.mp3","null","test","stim/audio_tones/tone_2.mp3","","","459","",""
"","","","","","audio-keyboard-response","478","906758","0.0-20.0-0.439","null","stim/audio_instructions/silence.mp3","null","test","stim/audio_instructions/silence.mp3","","","460","",""
"","","","","","audio-keyboard-response","479","907767","0.0-20.0-0.440","null","stim/audio_stimuli/lake.mp3","null","test","stim/audio_stimuli/lake.mp3","","","461","list",""
"","","","","","audio-keyboard-response","480","908784","0.0-20.0-0.441","null","stim/audio_stimuli/boat.mp3","null","test","stim/audio_stimuli/boat.mp3","","","462","list",""
"","","","","","audio-keyboard-response","481","909792","0.0-20.0-0.442","null","stim/audio_stimuli/swim.mp3","null","test","stim/audio_stimuli/swim.mp3","","","463","list",""
"","","","","","audio-keyboard-response","482","910805","0.0-20.0-0.443","null","stim/audio_stimuli/run.mp3","null","test","stim/audio_stimuli/run.mp3","","","464","list",""
"","","","","","audio-keyboard-response","483","911814","0.0-20.0-0.444","null","stim/audio_stimuli/creek.mp3","null","test","stim/audio_stimuli/creek.mp3","","","465","list",""
"","","","","","audio-keyboard-response","484","912817","0.0-20.0-0.445","null","stim/audio_stimuli/fish.mp3","null","test","stim/audio_stimuli/fish.mp3","","","466","list",""
"","","","","","audio-keyboard-response","485","914826","0.0-20.0-0.446","null","stim/audio_tones/tone_1.mp3","null","test","stim/audio_tones/tone_1.mp3","","","467","",""
"","","","","","audio-keyboard-response","486","918280","0.0-20.0-0.447","","","","test","stim/audio_stimuli/rough.mp3","false","100","468","target","70"
"","","","","","audio-keyboard-response","487","918293","0.0-20.0-0.448","null","stim/audio_instructions/silence.mp3","null","test","stim/audio_instructions/silence.mp3","","","469","",""
"","","","","","audio-keyboard-response","488","922299","0.0-20.0-0.449","null","stim/audio_tones/tone_2.mp3","null","test","stim/audio_tones/tone_2.mp3","","","470","",""
"","","","","","audio-keyboard-response","489","922315","0.0-20.0-0.450","null","stim/audio_instructions/silence.mp3","null","test","stim/audio_instructions/silence.mp3","","","471","",""
"","","","","","audio-keyboard-response","490","923331","0.0-20.0-0.451","null","stim/audio_stimuli/tie.mp3","null","test","stim/audio_stimuli/tie.mp3","","","472","list",""
"","","","","","audio-keyboard-response","491","924348","0.0-20.0-0.452","null","stim/audio_stimuli/shorts.mp3","null","test","stim/audio_stimuli/shorts.mp3","","","473","list",""
"","","","","","audio-keyboard-response","492","925360","0.0-20.0-0.453","null","stim/audio_stimuli/polo.mp3","null","test","stim/audio_stimuli/polo.mp3","","","474","list",""
"","","","","","audio-keyboard-response","493","926371","0.0-20.0-0.454","null","stim/audio_stimuli/vest.mp3","null","test","stim/audio_stimuli/vest.mp3","","","475","list",""
"","","","","","audio-keyboard-response","494","927382","0.0-20.0-0.455","null","stim/audio_stimuli/jersey.mp3","null","test","stim/audio_stimuli/jersey.mp3","","","476","list",""
"","","","","","audio-keyboard-response","495","928395","0.0-20.0-0.456","null","stim/audio_stimuli/linen.mp3","null","test","stim/audio_stimuli/linen.mp3","","","477","list",""
"","","","","","audio-keyboard-response","496","930413","0.0-20.0-0.457","null","stim/audio_tones/tone_1.mp3","null","test","stim/audio_tones/tone_1.mp3","","","478","",""
"","","","","","audio-keyboard-response","497","935418","0.0-20.0-0.458","null","stim/audio_stimuli/shirt.mp3","null","test","stim/audio_stimuli/shirt.mp3","false","3.7","479","target","70"
"","","","","","audio-keyboard-response","498","935433","0.0-20.0-0.459","null","stim/audio_instructions/silence.mp3","null","test","stim/audio_instructions/silence.mp3","","","480","",""
"","","","","","audio-keyboard-response","499","939440","0.0-20.0-0.460","null","stim/audio_tones/tone_2.mp3","null","test","stim/audio_tones/tone_2.mp3","","","481","",""
"","","","","","audio-keyboard-response","500","939459","0.0-20.0-0.461","null","stim/audio_instructions/silence.mp3","null","test","stim/audio_instructions/silence.mp3","","","482","",""
"","","","","","audio-keyboard-response","501","940463","0.0-20.0-0.462","null","stim/audio_stimuli/legs.mp3","null","test","stim/audio_stimuli/legs.mp3","","","483","list",""
"","","","","","audio-keyboard-response","502","941471","0.0-20.0-0.463","null","stim/audio_stimuli/couch.mp3","null","test","stim/audio_stimuli/couch.mp3","","","484","list",""
"","","","","","audio-keyboard-response","503","942487","0.0-20.0-0.464","null","stim/audio_stimuli/recliner.mp3","null","test","stim/audio_stimuli/recliner.mp3","","","485","list",""
"","","","","","audio-keyboard-response","504","943492","0.0-20.0-0.465","null","stim/audio_stimuli/wood.mp3","null","test","stim/audio_stimuli/wood.mp3","","","486","list",""
"","","","","","audio-keyboard-response","505","944506","0.0-20.0-0.466","null","stim/audio_stimuli/swivel.mp3","null","test","stim/audio_stimuli/swivel.mp3","","","487","list",""
"","","","","","audio-keyboard-response","506","945511","0.0-20.0-0.467","null","stim/audio_stimuli/sitting.mp3","null","test","stim/audio_stimuli/sitting.mp3","","","488","list",""
"","","","","","audio-keyboard-response","507","947528","0.0-20.0-0.468","null","stim/audio_tones/tone_1.mp3","null","test","stim/audio_tones/tone_1.mp3","","","489","",""
"","","","","","audio-keyboard-response","508","951081","0.0-20.0-0.469","","","","test","stim/audio_stimuli/banner.mp3","false","100","490","target","70"
"","","","","","audio-keyboard-response","509","951096","0.0-20.0-0.470","null","stim/audio_instructions/silence.mp3","null","test","stim/audio_instructions/silence.mp3","","","491","",""
"","","","","","audio-keyboard-response","510","955101","0.0-20.0-0.471","null","stim/audio_tones/tone_2.mp3","null","test","stim/audio_tones/tone_2.mp3","","","492","",""
"","","","","","audio-keyboard-response","511","955117","0.0-20.0-0.472","null","stim/audio_instructions/silence.mp3","null","test","stim/audio_instructions/silence.mp3","","","493","",""
"","","","","","audio-keyboard-response","512","956131","0.0-20.0-0.473","null","stim/audio_stimuli/symbol.mp3","null","test","stim/audio_stimuli/symbol.mp3","","","494","list",""
"","","","","","audio-keyboard-response","513","957140","0.0-20.0-0.474","null","stim/audio_stimuli/anthem.mp3","null","test","stim/audio_stimuli/anthem.mp3","","","495","list",""
"","","","","","audio-keyboard-response","514","958159","0.0-20.0-0.475","null","stim/audio_stimuli/pole.mp3","null","test","stim/audio_stimuli/pole.mp3","","","496","list",""
"","","","","","audio-keyboard-response","515","959175","0.0-20.0-0.476","null","stim/audio_stimuli/raised.mp3","null","test","stim/audio_stimuli/raised.mp3","","","497","list",""
"","","","","","audio-keyboard-response","516","960181","0.0-20.0-0.477","null","stim/audio_stimuli/checkered.mp3","null","test","stim/audio_stimuli/checkered.mp3","","","498","list",""
"","","","","","audio-keyboard-response","517","961194","0.0-20.0-0.478","null","stim/audio_stimuli/sign.mp3","null","test","stim/audio_stimuli/sign.mp3","","","499","list",""
"","","","","","audio-keyboard-response","518","963200","0.0-20.0-0.479","null","stim/audio_tones/tone_1.mp3","null","test","stim/audio_tones/tone_1.mp3","","","500","",""
"","","","","","audio-keyboard-response","519","968210","0.0-20.0-0.480","null","stim/audio_stimuli/needle.mp3","null","test","stim/audio_stimuli/needle.mp3","false","62.900000000000006","501","target","70"
"","","","","","audio-keyboard-response","520","968226","0.0-20.0-0.481","null","stim/audio_instructions/silence.mp3","null","test","stim/audio_instructions/silence.mp3","","","502","",""
"","","","","","audio-keyboard-response","521","972243","0.0-20.0-0.482","null","stim/audio_tones/tone_2.mp3","null","test","stim/audio_tones/tone_2.mp3","","","503","",""
"","","","","","audio-keyboard-response","522","972258","0.0-20.0-0.483","null","stim/audio_instructions/silence.mp3","null","test","stim/audio_instructions/silence.mp3","","","504","",""
"","","","","","audio-keyboard-response","523","973272","0.0-20.0-0.484","null","stim/audio_stimuli/refuse.mp3","null","test","stim/audio_stimuli/refuse.mp3","","","505","list",""
"","","","","","audio-keyboard-response","524","974281","0.0-20.0-0.485","null","stim/audio_stimuli/bag.mp3","null","test","stim/audio_stimuli/bag.mp3","","","506","list",""
"","","","","","audio-keyboard-response","525","975289","0.0-20.0-0.486","null","stim/audio_stimuli/rubbish.mp3","null","test","stim/audio_stimuli/rubbish.mp3","","","507","list",""
"","","","","","audio-keyboard-response","526","976298","0.0-20.0-0.487","null","stim/audio_stimuli/garbage.mp3","null","test","stim/audio_stimuli/garbage.mp3","false","0","508","target","74"
"","","","","","audio-keyboard-response","527","977308","0.0-20.0-0.488","null","stim/audio_stimuli/dump.mp3","null","test","stim/audio_stimuli/dump.mp3","","","509","list",""
"","","","","","audio-keyboard-response","528","978313","0.0-20.0-0.489","null","stim/audio_stimuli/debris.mp3","null","test","stim/audio_stimuli/debris.mp3","","","510","list",""
"","","","","","audio-keyboard-response","529","980328","0.0-20.0-0.490","null","stim/audio_tones/tone_1.mp3","null","test","stim/audio_tones/tone_1.mp3","","","511","",""
"","","","","","audio-keyboard-response","530","983158","0.0-20.0-0.491","","","","test","stim/audio_stimuli/garbage.mp3","false","100","512","target","74"
"","","","","","audio-keyboard-response","531","983170","0.0-20.0-0.492","null","stim/audio_instructions/silence.mp3","null","test","stim/audio_instructions/silence.mp3","","","513","",""
"","","","","","audio-keyboard-response","532","987179","0.0-20.0-0.493","null","stim/audio_tones/tone_2.mp3","null","test","stim/audio_tones/tone_2.mp3","","","514","",""
"","","","","","audio-keyboard-response","533","987196","0.0-20.0-0.494","null","stim/audio_instructions/silence.mp3","null","test","stim/audio_instructions/silence.mp3","","","515","",""
"","","","","","audio-keyboard-response","534","988211","0.0-20.0-0.495","null","stim/audio_stimuli/up.mp3","null","test","stim/audio_stimuli/up.mp3","","","516","list",""
"","","","","","audio-keyboard-response","535","989214","0.0-20.0-0.496","null","stim/audio_stimuli/tower.mp3","null","test","stim/audio_stimuli/tower.mp3","","","517","list",""
"","","","","","audio-keyboard-response","536","990231","0.0-20.0-0.497","null","stim/audio_stimuli/above.mp3","null","test","stim/audio_stimuli/above.mp3","","","518","list",""
"","","","","","audio-keyboard-response","537","991238","0.0-20.0-0.498","null","stim/audio_stimuli/noon.mp3","null","test","stim/audio_stimuli/noon.mp3","","","519","list",""
"","","","","","audio-keyboard-response","538","992246","0.0-20.0-0.499","null","stim/audio_stimuli/sky.mp3","null","test","stim/audio_stimuli/sky.mp3","","","520","list",""
"","","","","","audio-keyboard-response","539","993251","0.0-20.0-0.500","null","stim/audio_stimuli/airplane.mp3","null","test","stim/audio_stimuli/airplane.mp3","","","521","list",""
"","","","","","audio-keyboard-response","540","995259","0.0-20.0-0.501","null","stim/audio_tones/tone_1.mp3","null","test","stim/audio_tones/tone_1.mp3","","","522","",""
"","","","","","audio-keyboard-response","541","998461","0.0-20.0-0.502","","","","test","stim/audio_stimuli/car.mp3","false","100","523","target","70"
"","","","","","audio-keyboard-response","542","998480","0.0-20.0-0.503","null","stim/audio_instructions/silence.mp3","null","test","stim/audio_instructions/silence.mp3","","","524","",""
"","","","","","audio-keyboard-response","543","1002490","0.0-20.0-0.504","null","stim/audio_tones/tone_2.mp3","null","test","stim/audio_tones/tone_2.mp3","","","525","",""
"","","","","","audio-keyboard-response","544","1002503","0.0-20.0-0.505","null","stim/audio_instructions/silence.mp3","null","test","stim/audio_instructions/silence.mp3","","","526","",""
"","","","","","audio-keyboard-response","545","1003512","0.0-20.0-0.506","null","stim/audio_stimuli/seat.mp3","null","test","stim/audio_stimuli/seat.mp3","","","527","list",""
"","","","","","audio-keyboard-response","546","1004518","0.0-20.0-0.507","null","stim/audio_stimuli/desk.mp3","null","test","stim/audio_stimuli/desk.mp3","","","528","list",""
"","","","","","audio-keyboard-response","547","1005532","0.0-20.0-0.508","null","stim/audio_stimuli/sofa.mp3","null","test","stim/audio_stimuli/sofa.mp3","","","529","list",""
"","","","","","audio-keyboard-response","548","1006536","0.0-20.0-0.509","null","stim/audio_stimuli/table.mp3","null","test","stim/audio_stimuli/table.mp3","false","0","530","target","74"
"","","","","","audio-keyboard-response","549","1007545","0.0-20.0-0.510","null","stim/audio_stimuli/stool.mp3","null","test","stim/audio_stimuli/stool.mp3","","","531","list",""
"","","","","","audio-keyboard-response","550","1008562","0.0-20.0-0.511","null","stim/audio_stimuli/rocking.mp3","null","test","stim/audio_stimuli/rocking.mp3","","","532","list",""
"","","","","","audio-keyboard-response","551","1010571","0.0-20.0-0.512","null","stim/audio_tones/tone_1.mp3","null","test","stim/audio_tones/tone_1.mp3","","","533","",""
"","","","","","audio-keyboard-response","552","1015582","0.0-20.0-0.513","null","stim/audio_stimuli/table.mp3","null","test","stim/audio_stimuli/table.mp3","false","62.900000000000006","534","target","74"
"","","","","","audio-keyboard-response","553","1015597","0.0-20.0-0.514","null","stim/audio_instructions/silence.mp3","null","test","stim/audio_instructions/silence.mp3","","","535","",""
"","","","","","audio-keyboard-response","554","1019602","0.0-20.0-0.515","null","stim/audio_tones/tone_2.mp3","null","test","stim/audio_tones/tone_2.mp3","","","536","",""
"","","","","","audio-keyboard-response","555","1019618","0.0-20.0-0.516","null","stim/audio_instructions/silence.mp3","null","test","stim/audio_instructions/silence.mp3","","","537","",""
"","","","","","audio-keyboard-response","556","1020630","0.0-20.0-0.517","null","stim/audio_stimuli/mississippi.mp3","null","test","stim/audio_stimuli/mississippi.mp3","","","538","list",""
"","","","","","audio-keyboard-response","557","1021649","0.0-20.0-0.518","null","stim/audio_stimuli/tide.mp3","null","test","stim/audio_stimuli/tide.mp3","","","539","list",""
"","","","","","audio-keyboard-response","558","1022666","0.0-20.0-0.519","null","stim/audio_stimuli/flow.mp3","null","test","stim/audio_stimuli/flow.mp3","","","540","list",""
"","","","","","audio-keyboard-response","559","1023680","0.0-20.0-0.520","null","stim/audio_stimuli/barge.mp3","null","test","stim/audio_stimuli/barge.mp3","","","541","list",""
