"success","timeout","failed_images","failed_audio","failed_video","trial_type","trial_index","time_elapsed","internal_node_id","rt","stimulus","response","test_part","stim","accuracy","confidence","index","word_position","correct_response"
"true","false","[]","[]","[]","preload","0","3047","0.0-0.0","","","","","","","","","",""
"","","","","","html-keyboard-response","1","10236","0.0-1.0","7186","<p> This experiment is presented in an auditory format</p><p>Please make sure that you increase the volume on your computer.</p><p>If you are blind and use a screenreader (e.g., JAWS, NVDA, VoiceOver), we highly recommend that you turn it off before starting the experiment.</p><p> <i> Press the spacebar to start hearing the instructions. </i> </p>"," ","","","","","","",""
"","","","","","audio-keyboard-response","2","25875","0.0-2.0","null","stim/audio_instructions/DRM_instructions_0.mp3","null","","","","","","",""
"","","","","","html-keyboard-response","3","30058","0.0-3.0","4182","stim/audio_instructions/silence.mp3"," ","","","","","","",""
"","","","","","audio-keyboard-response","4","48004","0.0-4.0","null","stim/audio_instructions/drm_instructions_1.mp3","null","","","","","","",""
"","","","","","audio-keyboard-response","5","48202","0.0-5.0","189","stim/audio_instructions/silence.mp3"," ","","","","","","",""
"","","","","","audio-keyboard-response","6","52714","0.0-6.0","null","stim/audio_tones/tone_1.mp3","null","","","","","","",""
"","","","","","audio-keyboard-response","7","73154","0.0-7.0","null","stim/audio_instructions/drm_instructions_after_short_tone.mp3","null","","","","","","",""
"","","","","","audio-keyboard-response","8","81984","0.0-8.0","8829","stim/audio_instructions/silence.mp3","f","","","","","","",""
"","","","","","audio-keyboard-response","9","112134","0.0-9.0","null","stim/audio_instructions/drm_instructions_2.mp3","null","","","","","","",""
"","","","","","audio-keyboard-response","10","113147","0.0-10.0","","","","","","","","","",""
"","","","","","audio-keyboard-response","11","128055","0.0-11.0","14571","stim/audio_instructions/drm_instructions_3.mp3"," ","","","","","","",""
"","","","","","html-keyboard-response","12","129617","0.0-12.0","1560","stim/audio_instructions/silence.mp3"," ","","","","","","",""
"","","","","","audio-keyboard-response","13","134134","0.0-13.0","null","stim/audio_tones/tone_2.mp3","null","","","","","","",""
"","","","","","audio-keyboard-response","14","142844","0.0-14.0","null","stim/audio_instructions/drm_instructions_5.mp3","null","","","","","","",""
"","","","","","html-keyboard-response","15","147578","0.0-15.0","4733","stim/audio_instructions/silence.mp3"," ","","","","","","",""
"","","","","","audio-keyboard-response","16","150583","0.0-16.0-0.0","null","stim/audio_tones/tone_2.mp3","null","practice","stim/audio_tones/tone_2.mp3","","","1","",""
"","","","","","audio-keyboard-response","17","151192","0.0-16.0-0.1","null","stim/audio_instructions/silence.mp3","null","practice","stim/audio_instructions/silence.mp3","","","2","",""
"","","","","","audio-keyboard-response","18","152209","0.0-16.0-0.2","null","stim/audio_practice/atom.mp3","null","practice","stim/audio_practice/atom.mp3","","","3","list",""
"","","","","","audio-keyboard-response","19","153224","0.0-16.0-0.3","null","stim/audio_practice/molecule.mp3","null","practice","stim/audio_practice/molecule.mp3","","","4","list",""
"","","","","","audio-keyboard-response","20","154226","0.0-16.0-0.4","null","stim/audio_practice/bond.mp3","null","practice","stim/audio_practice/bond.mp3","","","5","list",""
"","","","","","audio-keyboard-response","21","155233","0.0-16.0-0.5","null","stim/audio_practice/gas.mp3","null","practice","stim/audio_practice/gas.mp3","","","6","list",""
"","","","","","audio-keyboard-response","22","156250","0.0-16.0-0.6","null","stim/audio_practice/electron.mp3","null","practice","stim/audio_practice/electron.mp3","","","7","list",""
"","","","","","audio-keyboard-response","23","157252","0.0-16.0-0.7","null","stim/audio_practice/oxygen.mp3","null","practice","stim/audio_practice/oxygen.mp3","","","8","list",""
"","","","","","audio-keyboard-response","24","158264","0.0-16.0-0.8","null","stim/audio_tones/tone_1.mp3","null","practice","stim/audio_tones/tone_1.mp3","","","9","responsePrompt",""
"","","","","","audio-keyboard-response","25","163345","0.0-16.0-0.9","null","stim/audio_practice/chemistry.mp3","null","practice","stim/audio_practice/chemistry.mp3","false","92.5","10","target","74"
"","","","","","audio-keyboard-response","26","166349","0.0-16.0-0.10","null","stim/audio_tones/tone_2.mp3","null","practice","stim/audio_tones/tone_2.mp3","","","11","",""
"","","","","","audio-keyboard-response","27","166966","0.0-16.0-0.11","null","stim/audio_instructions/silence.mp3","null","practice","stim/audio_instructions/silence.mp3","","","12","",""
"","","","","","audio-keyboard-response","28","167983","0.0-16.0-0.12","null","stim/audio_practice/shark.mp3","null","practice","stim/audio_practice/shark.mp3","","","13","list",""
"","","","","","audio-keyboard-response","29","168995","0.0-16.0-0.13","null","stim/audio_practice/island.mp3","null","practice","stim/audio_practice/island.mp3","","","14","list",""
"","","","","","audio-keyboard-response","30","170008","0.0-16.0-0.14","null","stim/audio_practice/waves.mp3","null","practice","stim/audio_practice/waves.mp3","","","15","list",""
"","","","","","audio-keyboard-response","31","171024","0.0-16.0-0.15","null","stim/audio_practice/shrimp.mp3","null","practice","stim/audio_practice/shrimp.mp3","","","16","list",""
"","","","","","audio-keyboard-response","32","172035","0.0-16.0-0.16","null","stim/audio_practice/ocean.mp3","null","practice","stim/audio_practice/ocean.mp3","","","17","list",""
"","","","","","audio-keyboard-response","33","173048","0.0-16.0-0.17","null","stim/audio_practice/whale.mp3","null","practice","stim/audio_practice/whale.mp3","","","18","list",""
"","","","","","audio-keyboard-response","34","174061","0.0-16.0-0.18","null","stim/audio_tones/tone_1.mp3","null","practice","stim/audio_tones/tone_1.mp3","","","19","responsePrompt",""
"","","","","","audio-keyboard-response","35","177025","0.0-16.0-0.19","","","","practice","stim/audio_practice/ocean.mp3","false","100","20","target","74"
"","","","","","audio-keyboard-response","36","179069","0.0-17.0","null","stim/audio_practice/ocean.mp3","null","","","","","","",""
"","","","","","audio-keyboard-response","37","192955","0.0-18.0","null","stim/audio_instructions/drm_instructions_6.mp3","null","","","","","","",""
"","","","","","html-keyboard-response","38","195081","0.0-19.0","2124","stim/audio_instructions/silence.mp3"," ","","","","","","",""
"","","","","","audio-keyboard-response","39","196085","0.0-20.0-0.0","null","stim/audio_stimuli/tamer.mp3","null","test","stim/audio_stimuli/tamer.mp3","","","21","list",""
"","","","","","audio-keyboard-response","40","197097","0.0-20.0-0.1","null","stim/audio_stimuli/tiger.mp3","null","test","stim/audio_stimuli/tiger.mp3","","","22","list",""
"","","","","","audio-keyboard-response","41","198110","0.0-20.0-0.2","null","stim/audio_stimuli/mane.mp3","null","test","stim/audio_stimuli/mane.mp3","","","23","list",""
"","","","","","audio-keyboard-response","42","199127","0.0-20.0-0.3","null","stim/audio_stimuli/feline.mp3","null","test","stim/audio_stimuli/feline.mp3","","","24","list",""
"","","","","","audio-keyboard-response","43","200132","0.0-20.0-0.4","null","stim/audio_stimuli/fierce.mp3","null","test","stim/audio_stimuli/fierce.mp3","","","25","list",""
"","","","","","audio-keyboard-response","44","201139","0.0-20.0-0.5","null","stim/audio_stimuli/hunt.mp3","null","test","stim/audio_stimuli/hunt.mp3","","","26","list",""
"","","","","","audio-keyboard-response","45","203143","0.0-20.0-0.6","null","stim/audio_tones/tone_1.mp3","null","test","stim/audio_tones/tone_1.mp3","","","27","",""
"","","","","","audio-keyboard-response","46","205887","0.0-20.0-0.7","","","","test","stim/audio_stimuli/tiger.mp3","false","100","28","target","74"
"","","","","","audio-keyboard-response","47","205900","0.0-20.0-0.8","null","stim/audio_instructions/silence.mp3","null","test","stim/audio_instructions/silence.mp3","","","29","",""
"","","","","","audio-keyboard-response","48","209916","0.0-20.0-0.9","null","stim/audio_tones/tone_2.mp3","null","test","stim/audio_tones/tone_2.mp3","","","30","",""
"","","","","","audio-keyboard-response","49","209931","0.0-20.0-0.10","null","stim/audio_instructions/silence.mp3","null","test","stim/audio_instructions/silence.mp3","","","31","",""
"","","","","","audio-keyboard-response","50","210938","0.0-20.0-0.11","null","stim/audio_stimuli/seat.mp3","null","test","stim/audio_stimuli/seat.mp3","","","32","list",""
"","","","","","audio-keyboard-response","51","211942","0.0-20.0-0.12","null","stim/audio_stimuli/desk.mp3","null","test","stim/audio_stimuli/desk.mp3","","","33","list",""
"","","","","","audio-keyboard-response","52","212954","0.0-20.0-0.13","null","stim/audio_stimuli/sofa.mp3","null","test","stim/audio_stimuli/sofa.mp3","","","34","list",""
"","","","","","audio-keyboard-response","53","213971","0.0-20.0-0.14","null","stim/audio_stimuli/cushion.mp3","null","test","stim/audio_stimuli/cushion.mp3","","","35","list",""
"","","","","","audio-keyboard-response","54","214988","0.0-20.0-0.15","null","stim/audio_stimuli/stool.mp3","null","test","stim/audio_stimuli/stool.mp3","","","36","list",""
"","","","","","audio-keyboard-response","55","215999","0.0-20.0-0.16","null","stim/audio_stimuli/rocking.mp3","null","test","stim/audio_stimuli/rocking.mp3","","","37","list",""
"","","","","","audio-keyboard-response","56","218013","0.0-20.0-0.17","null","stim/audio_tones/tone_1.mp3","null","test","stim/audio_tones/tone_1.mp3","","","38","",""
"","","","","","audio-keyboard-response","57","223023","0.0-20.0-0.18","null","stim/audio_stimuli/chair.mp3","null","test","stim/audio_stimuli/chair.mp3","false","11.100000000000001","39","target","70"
"","","","","","audio-keyboard-response","58","223037","0.0-20.0-0.19","null","stim/audio_instructions/silence.mp3","null","test","stim/audio_instructions/silence.mp3","","","40","",""
"","","","","","audio-keyboard-response","59","227040","0.0-20.0-0.20","null","stim/audio_tones/tone_2.mp3","null","test","stim/audio_tones/tone_2.mp3","","","41","",""
"","","","","","audio-keyboard-response","60","227054","0.0-20.0-0.21","null","stim/audio_instructions/silence.mp3","null","test","stim/audio_instructions/silence.mp3","","","42","",""
"","","","","","audio-keyboard-response","61","228069","0.0-20.0-0.22","null","stim/audio_stimuli/jungle.mp3","null","test","stim/audio_stimuli/jungle.mp3","","","43","list",""
"","","","","","audio-keyboard-response","62","229085","0.0-20.0-0.23","null","stim/audio_stimuli/den.mp3","null","test","stim/audio_stimuli/den.mp3","","","44","list",""
"","","","","","audio-keyboard-response","63","230103","0.0-20.0-0.24","null","stim/audio_stimuli/africa.mp3","null","test","stim/audio_stimuli/africa.mp3","","","45","list",""
"","","","","","audio-keyboard-response","64","231119","0.0-20.0-0.25","null","stim/audio_stimuli/cage.mp3","null","test","stim/audio_stimuli/cage.mp3","","","46","list",""
"","","","","","audio-keyboard-response","65","232132","0.0-20.0-0.26","null","stim/audio_stimuli/roar.mp3","null","test","stim/audio_stimuli/roar.mp3","","","47","list",""
"","","","","","audio-keyboard-response","66","233146","0.0-20.0-0.27","null","stim/audio_stimuli/bears.mp3","null","test","stim/audio_stimuli/bears.mp3","","","48","list",""
"","","","","","audio-keyboard-response","67","235155","0.0-20.0-0.28","null","stim/audio_tones/tone_1.mp3","null","test","stim/audio_tones/tone_1.mp3","","","49","",""
"","","","","","audio-keyboard-response","68","240164","0.0-20.0-0.29","null","stim/audio_stimuli/table.mp3","null","test","stim/audio_stimuli/elastic.mp3","false","99.9","50","target","70"
"","","","","","audio-keyboard-response","69","240178","0.0-20.0-0.30","null","stim/audio_instructions/silence.mp3","null","test","stim/audio_instructions/silence.mp3","","","51","",""
"","","","","","audio-keyboard-response","70","244185","0.0-20.0-0.31","null","stim/audio_tones/tone_2.mp3","null","test","stim/audio_tones/tone_2.mp3","","","52","",""
"","","","","","audio-keyboard-response","71","244198","0.0-20.0-0.32","null","stim/audio_instructions/silence.mp3","null","test","stim/audio_instructions/silence.mp3","","","53","",""
"","","","","","audio-keyboard-response","72","245202","0.0-20.0-0.33","null","stim/audio_stimuli/bitter.mp3","null","test","stim/audio_stimuli/bitter.mp3","","","54","list",""
"","","","","","audio-keyboard-response","73","246216","0.0-20.0-0.34","null","stim/audio_stimuli/taste.mp3","null","test","stim/audio_stimuli/taste.mp3","","","55","list",""
"","","","","","audio-keyboard-response","74","247231","0.0-20.0-0.35","null","stim/audio_stimuli/nice.mp3","null","test","stim/audio_stimuli/nice.mp3","","","56","list",""
"","","","","","audio-keyboard-response","75","248247","0.0-20.0-0.36","null","stim/audio_stimuli/soda.mp3","null","test","stim/audio_stimuli/soda.mp3","","","57","list",""
"","","","","","audio-keyboard-response","76","249250","0.0-20.0-0.37","null","stim/audio_stimuli/heart.mp3","null","test","stim/audio_stimuli/heart.mp3","","","58","list",""
"","","","","","audio-keyboard-response","77","250257","0.0-20.0-0.38","null","stim/audio_stimuli/tart.mp3","null","test","stim/audio_stimuli/tart.mp3","","","59","list",""
"","","","","","audio-keyboard-response","78","252269","0.0-20.0-0.39","null","stim/audio_tones/tone_1.mp3","null","test","stim/audio_tones/tone_1.mp3","","","60","",""
"","","","","","audio-keyboard-response","79","257274","0.0-20.0-0.40","null","stim/audio_stimuli/sweet.mp3","null","test","stim/audio_stimuli/sweet.mp3","false","37","61","target","70"
"","","","","","audio-keyboard-response","80","257287","0.0-20.0-0.41","null","stim/audio_instructions/silence.mp3","null","test","stim/audio_instructions/silence.mp3","","","62","",""
"","","","","","audio-keyboard-response","81","261300","0.0-20.0-0.42","null","stim/audio_tones/tone_2.mp3","null","test","stim/audio_tones/tone_2.mp3","","","63","",""
"","","","","","audio-keyboard-response","82","261313","0.0-20.0-0.43","null","stim/audio_instructions/silence.mp3","null","test","stim/audio_instructions/silence.mp3","","","64","",""
"","","","","","audio-keyboard-response","83","262320","0.0-20.0-0.44","null","stim/audio_stimuli/legs.mp3","null","test","stim/audio_stimuli/legs.mp3","","","65","list",""
"","","","","","audio-keyboard-response","84","263334","0.0-20.0-0.45","null","stim/audio_stimuli/couch.mp3","null","test","stim/audio_stimuli/couch.mp3","","","66","list",""
"","","","","","audio-keyboard-response","85","264348","0.0-20.0-0.46","null","stim/audio_stimuli/recliner.mp3","null","test","stim/audio_stimuli/recliner.mp3","","","67","list",""
"","","","","","audio-keyboard-response","86","265363","0.0-20.0-0.47","null","stim/audio_stimuli/wood.mp3","null","test","stim/audio_stimuli/wood.mp3","","","68","list",""
"","","","","","audio-keyboard-response","87","266378","0.0-20.0-0.48","null","stim/audio_stimuli/swivel.mp3","null","test","stim/audio_stimuli/swivel.mp3","","","69","list",""
"","","","","","audio-keyboard-response","88","267391","0.0-20.0-0.49","null","stim/audio_stimuli/sitting.mp3","null","test","stim/audio_stimuli/sitting.mp3","","","70","list",""
"","","","","","audio-keyboard-response","89","269395","0.0-20.0-0.50","null","stim/audio_tones/tone_1.mp3","null","test","stim/audio_tones/tone_1.mp3","","","71","",""
"","","","","","audio-keyboard-response","90","272570","0.0-20.0-0.51","","","","test","stim/audio_stimuli/king.mp3","false","100","72","target","70"
"","","","","","audio-keyboard-response","91","272582","0.0-20.0-0.52","null","stim/audio_instructions/silence.mp3","null","test","stim/audio_instructions/silence.mp3","","","73","",""
"","","","","","audio-keyboard-response","92","276585","0.0-20.0-0.53","null","stim/audio_tones/tone_2.mp3","null","test","stim/audio_tones/tone_2.mp3","","","74","",""
"","","","","","audio-keyboard-response","93","276599","0.0-20.0-0.54","null","stim/audio_instructions/silence.mp3","null","test","stim/audio_instructions/silence.mp3","","","75","",""
"","","","","","audio-keyboard-response","94","277615","0.0-20.0-0.55","null","stim/audio_stimuli/sugar.mp3","null","test","stim/audio_stimuli/sugar.mp3","","","76","list",""
"","","","","","audio-keyboard-response","95","278629","0.0-20.0-0.56","null","stim/audio_stimuli/good.mp3","null","test","stim/audio_stimuli/good.mp3","","","77","list",""
"","","","","","audio-keyboard-response","96","279644","0.0-20.0-0.57","null","stim/audio_stimuli/tooth.mp3","null","test","stim/audio_stimuli/tooth.mp3","","","78","list",""
"","","","","","audio-keyboard-response","97","280659","0.0-20.0-0.58","null","stim/audio_stimuli/honey.mp3","null","test","stim/audio_stimuli/honey.mp3","","","79","list",""
"","","","","","audio-keyboard-response","98","281672","0.0-20.0-0.59","null","stim/audio_stimuli/chocolate.mp3","null","test","stim/audio_stimuli/chocolate.mp3","","","80","list",""
"","","","","","audio-keyboard-response","99","282685","0.0-20.0-0.60","null","stim/audio_stimuli/cake.mp3","null","test","stim/audio_stimuli/cake.mp3","","","81","list",""
"","","","","","audio-keyboard-response","100","284702","0.0-20.0-0.61","null","stim/audio_tones/tone_1.mp3","null","test","stim/audio_tones/tone_1.mp3","","","82","",""
"","","","","","audio-keyboard-response","101","287756","0.0-20.0-0.62","","","","test","stim/audio_stimuli/city.mp3","false","100","83","target","70"
"","","","","","audio-keyboard-response","102","287768","0.0-20.0-0.63","null","stim/audio_instructions/silence.mp3","null","test","stim/audio_instructions/silence.mp3","","","84","",""
"","","","","","audio-keyboard-response","103","291781","0.0-20.0-0.64","null","stim/audio_tones/tone_2.mp3","null","test","stim/audio_tones/tone_2.mp3","","","85","",""
"","","","","","audio-keyboard-response","104","291794","0.0-20.0-0.65","null","stim/audio_instructions/silence.mp3","null","test","stim/audio_instructions/silence.mp3","","","86","",""
"","","","","","audio-keyboard-response","105","292799","0.0-20.0-0.66","null","stim/audio_stimuli/young.mp3","null","test","stim/audio_stimuli/young.mp3","","","87","list",""
"","","","","","audio-keyboard-response","106","293811","0.0-20.0-0.67","null","stim/audio_stimuli/boy.mp3","null","test","stim/audio_stimuli/boy.mp3","false","0","88","target","74"
"","","","","","audio-keyboard-response","107","294823","0.0-20.0-0.68","null","stim/audio_stimuli/niece.mp3","null","test","stim/audio_stimuli/niece.mp3","","","89","list",""
"","","","","","audio-keyboard-response","108","295835","0.0-20.0-0.69","null","stim/audio_stimuli/beautiful.mp3","null","test","stim/audio_stimuli/beautiful.mp3","","","90","list",""
"","","","","","audio-keyboard-response","109","296849","0.0-20.0-0.70","null","stim/audio_stimuli/date.mp3","null","test","stim/audio_stimuli/date.mp3","","","91","list",""
"","","","","","audio-keyboard-response","110","297864","0.0-20.0-0.71","null","stim/audio_stimuli/daughter.mp3","null","test","stim/audio_stimuli/daughter.mp3","","","92","list",""
"","","","","","audio-keyboard-response","111","299877","0.0-20.0-0.72","null","stim/audio_tones/tone_1.mp3","null","test","stim/audio_tones/tone_1.mp3","","","93","",""
"","","","","","audio-keyboard-response","112","302877","0.0-20.0-0.73","","","","test","stim/audio_stimuli/boy.mp3","false","100","94","target","74"
"","","","","","audio-keyboard-response","113","302889","0.0-20.0-0.74","null","stim/audio_instructions/silence.mp3","null","test","stim/audio_instructions/silence.mp3","","","95","",""
"","","","","","audio-keyboard-response","114","306891","0.0-20.0-0.75","null","stim/audio_tones/tone_2.mp3","null","test","stim/audio_tones/tone_2.mp3","","","96","",""
"","","","","","audio-keyboard-response","115","306905","0.0-20.0-0.76","null","stim/audio_instructions/silence.mp3","null","test","stim/audio_instructions/silence.mp3","","","97","",""
"","","","","","audio-keyboard-response","116","307921","0.0-20.0-0.77","null","stim/audio_stimuli/kick.mp3","null","test","stim/audio_stimuli/kick.mp3","","","98","list",""
"","","","","","audio-keyboard-response","117","308936","0.0-20.0-0.78","null","stim/audio_stimuli/shoe.mp3","null","test","stim/audio_stimuli/shoe.mp3","false","0","99","target","74"
"","","","","","audio-keyboard-response","118","309951","0.0-20.0-0.79","null","stim/audio_stimuli/walk.mp3","null","test","stim/audio_stimuli/walk.mp3","","","100","list",""
"","","","","","audio-keyboard-response","119","310965","0.0-20.0-0.80","null","stim/audio_stimuli/arm.mp3","null","test","stim/audio_stimuli/arm.mp3","","","101","list",""
"","","","","","audio-keyboard-response","120","311981","0.0-20.0-0.81","null","stim/audio_stimuli/inch.mp3","null","test","stim/audio_stimuli/inch.mp3","","","102","list",""
"","","","","","audio-keyboard-response","121","312994","0.0-20.0-0.82","null","stim/audio_stimuli/knee.mp3","null","test","stim/audio_stimuli/knee.mp3","","","103","list",""
"","","","","","audio-keyboard-response","122","315011","0.0-20.0-0.83","null","stim/audio_tones/tone_1.mp3","null","test","stim/audio_tones/tone_1.mp3","","","104","",""
"","","","","","audio-keyboard-response","123","318098","0.0-20.0-0.84","","","","test","stim/audio_stimuli/shoe.mp3","false","100","105","target","74"
"","","","","","audio-keyboard-response","124","318109","0.0-20.0-0.85","null","stim/audio_instructions/silence.mp3","null","test","stim/audio_instructions/silence.mp3","","","106","",""
"","","","","","audio-keyboard-response","125","322111","0.0-20.0-0.86","null","stim/audio_tones/tone_2.mp3","null","test","stim/audio_tones/tone_2.mp3","","","107","",""
"","","","","","audio-keyboard-response","126","322125","0.0-20.0-0.87","null","stim/audio_instructions/silence.mp3","null","test","stim/audio_instructions/silence.mp3","","","108","",""
"","","","","","audio-keyboard-response","127","323139","0.0-20.0-0.88","null","stim/audio_stimuli/tire.mp3","null","test","stim/audio_stimuli/tire.mp3","","","109","list",""
"","","","","","audio-keyboard-response","128","324155","0.0-20.0-0.89","null","stim/audio_stimuli/eraser.mp3","null","test","stim/audio_stimuli/eraser.mp3","","","110","list",""
"","","","","","audio-keyboard-response","129","325170","0.0-20.0-0.90","null","stim/audio_stimuli/foam.mp3","null","test","stim/audio_stimuli/foam.mp3","","","111","list",""
"","","","","","audio-keyboard-response","130","326186","0.0-20.0-0.91","null","stim/audio_stimuli/soles.mp3","null","test","stim/audio_stimuli/soles.mp3","","","112","list",""
"","","","","","audio-keyboard-response","131","327201","0.0-20.0-0.92","null","stim/audio_stimuli/glue.mp3","null","test","stim/audio_stimuli/glue.mp3","","","113","list",""
"","","","","","audio-keyboard-response","132","328215","0.0-20.0-0.93","null","stim/audio_stimuli/resilient.mp3","null","test","stim/audio_stimuli/resilient.mp3","","","114","list",""
"","","","","","audio-keyboard-response","133","330225","0.0-20.0-0.94","null","stim/audio_tones/tone_1.mp3","null","test","stim/audio_tones/tone_1.mp3","","","115","",""
"","","","","","audio-keyboard-response","134","335231","0.0-20.0-0.95","null","stim/audio_stimuli/rubber.mp3","null","test","stim/audio_stimuli/rubber.mp3","false","100","116","target","70"
"","","","","","audio-keyboard-response","135","335245","0.0-20.0-0.96","null","stim/audio_instructions/silence.mp3","null","test","stim/audio_instructions/silence.mp3","","","117","",""
"","","","","","audio-keyboard-response","136","339260","0.0-20.0-0.97","null","stim/audio_tones/tone_2.mp3","null","test","stim/audio_tones/tone_2.mp3","","","118","",""
"","","","","","audio-keyboard-response","137","339273","0.0-20.0-0.98","null","stim/audio_instructions/silence.mp3","null","test","stim/audio_instructions/silence.mp3","","","119","",""
"","","","","","audio-keyboard-response","138","340275","0.0-20.0-0.99","null","stim/audio_stimuli/female.mp3","null","test","stim/audio_stimuli/female.mp3","","","120","list",""
"","","","","","audio-keyboard-response","139","341291","0.0-20.0-0.100","null","stim/audio_stimuli/dress.mp3","null","test","stim/audio_stimuli/dress.mp3","","","121","list",""
"","","","","","audio-keyboard-response","140","342306","0.0-20.0-0.101","null","stim/audio_stimuli/hair.mp3","null","test","stim/audio_stimuli/hair.mp3","","","122","list",""
"","","","","","audio-keyboard-response","141","343309","0.0-20.0-0.102","null","stim/audio_stimuli/dance.mp3","null","test","stim/audio_stimuli/dance.mp3","","","123","list",""
"","","","","","audio-keyboard-response","142","344315","0.0-20.0-0.103","null","stim/audio_stimuli/cute.mp3","null","test","stim/audio_stimuli/cute.mp3","","","124","list",""
"","","","","","audio-keyboard-response","143","345331","0.0-20.0-0.104","null","stim/audio_stimuli/aunt.mp3","null","test","stim/audio_stimuli/aunt.mp3","","","125","list",""
"","","","","","audio-keyboard-response","144","347346","0.0-20.0-0.105","null","stim/audio_tones/tone_1.mp3","null","test","stim/audio_tones/tone_1.mp3","","","126","",""
"","","","","","audio-keyboard-response","145","350724","0.0-20.0-0.106","","","","test","stim/audio_stimuli/sour.mp3","false","100","127","target","70"
"","","","","","audio-keyboard-response","146","350736","0.0-20.0-0.107","null","stim/audio_instructions/silence.mp3","null","test","stim/audio_instructions/silence.mp3","","","128","",""
"","","","","","audio-keyboard-response","147","354754","0.0-20.0-0.108","null","stim/audio_tones/tone_2.mp3","null","test","stim/audio_tones/tone_2.mp3","","","129","",""
"","","","","","audio-keyboard-response","148","354768","0.0-20.0-0.109","null","stim/audio_instructions/silence.mp3","null","test","stim/audio_instructions/silence.mp3","","","130","",""
"","","","","","audio-keyboard-response","149","355786","0.0-20.0-0.110","null","stim/audio_stimuli/medicine.mp3","null","test","stim/audio_stimuli/medicine.mp3","","","131","list",""
"","","","","","audio-keyboard-response","150","356804","0.0-20.0-0.111","null","stim/audio_stimuli/nurse.mp3","null","test","stim/audio_stimuli/nurse.mp3","false","0","132","target","74"
"","","","","","audio-keyboard-response","151","357821","0.0-20.0-0.112","null","stim/audio_stimuli/physician.mp3","null","test","stim/audio_stimuli/physician.mp3","","","133","list",""
"","","","","","audio-keyboard-response","152","358834","0.0-20.0-0.113","null","stim/audio_stimuli/patient.mp3","null","test","stim/audio_stimuli/patient.mp3","","","134","list",""
"","","","","","audio-keyboard-response","153","359849","0.0-20.0-0.114","null","stim/audio_stimuli/stethoscope.mp3","null","test","stim/audio_stimuli/stethoscope.mp3","","","135","list",""
"","","","","","audio-keyboard-response","154","360862","0.0-20.0-0.115","null","stim/audio_stimuli/clinic.mp3","null","test","stim/audio_stimuli/clinic.mp3","","","136","list",""
"","","","","","audio-keyboard-response","155","362872","0.0-20.0-0.116","null","stim/audio_tones/tone_1.mp3","null","test","stim/audio_tones/tone_1.mp3","","","137","",""
"","","","","","audio-keyboard-response","156","365542","0.0-20.0-0.117","","","","test","stim/audio_stimuli/nurse.mp3","false","100","138","target","74"
"","","","","","audio-keyboard-response","157","365554","0.0-20.0-0.118","null","stim/audio_instructions/silence.mp3","null","test","stim/audio_instructions/silence.mp3","","","139","",""
"","","","","","audio-keyboard-response","158","369568","0.0-20.0-0.119","null","stim/audio_tones/tone_2.mp3","null","test","stim/audio_tones/tone_2.mp3","","","140","",""
"","","","","","audio-keyboard-response","159","369582","0.0-20.0-0.120","null","stim/audio_instructions/silence.mp3","null","test","stim/audio_instructions/silence.mp3","","","141","",""
"","","","","","audio-keyboard-response","160","370587","0.0-20.0-0.121","null","stim/audio_stimuli/sandwich.mp3","null","test","stim/audio_stimuli/sandwich.mp3","","","142","list",""
"","","","","","audio-keyboard-response","161","371600","0.0-20.0-0.122","null","stim/audio_stimuli/butter.mp3","null","test","stim/audio_stimuli/butter.mp3","false","0","143","target","74"
"","","","","","audio-keyboard-response","162","372615","0.0-20.0-0.123","null","stim/audio_stimuli/flour.mp3","null","test","stim/audio_stimuli/flour.mp3","","","144","list",""
"","","","","","audio-keyboard-response","163","373617","0.0-20.0-0.124","null","stim/audio_stimuli/dough.mp3","null","test","stim/audio_stimuli/dough.mp3","","","145","list",""
"","","","","","audio-keyboard-response","164","374622","0.0-20.0-0.125","null","stim/audio_stimuli/slice.mp3","null","test","stim/audio_stimuli/slice.mp3","","","146","list",""
"","","","","","audio-keyboard-response","165","375626","0.0-20.0-0.126","null","stim/audio_stimuli/loaf.mp3","null","test","stim/audio_stimuli/loaf.mp3","","","147","list",""
"","","","","","audio-keyboard-response","166","377640","0.0-20.0-0.127","null","stim/audio_tones/tone_1.mp3","null","test","stim/audio_tones/tone_1.mp3","","","148","",""
"","","","","","audio-keyboard-response","167","382647","0.0-20.0-0.128","null","stim/audio_stimuli/butter.mp3","null","test","stim/audio_stimuli/butter.mp3","false","100","149","target","74"
"","","","","","audio-keyboard-response","168","382661","0.0-20.0-0.129","null","stim/audio_instructions/silence.mp3","null","test","stim/audio_instructions/silence.mp3","","","150","",""
"","","","","","audio-keyboard-response","169","386674","0.0-20.0-0.130","null","stim/audio_tones/tone_2.mp3","null","test","stim/audio_tones/tone_2.mp3","","","151","",""
"","","","","","audio-keyboard-response","170","386688","0.0-20.0-0.131","null","stim/audio_instructions/silence.mp3","null","test","stim/audio_instructions/silence.mp3","","","152","",""
"","","","","","audio-keyboard-response","171","387703","0.0-20.0-0.132","null","stim/audio_stimuli/toe.mp3","null","test","stim/audio_stimuli/toe.mp3","","","153","list",""
"","","","","","audio-keyboard-response","172","388720","0.0-20.0-0.133","null","stim/audio_stimuli/sandals.mp3","null","test","stim/audio_stimuli/sandals.mp3","","","154","list",""
"","","","","","audio-keyboard-response","173","389735","0.0-20.0-0.134","null","stim/audio_stimuli/yard.mp3","null","test","stim/audio_stimuli/yard.mp3","","","155","list",""
"","","","","","audio-keyboard-response","174","390747","0.0-20.0-0.135","null","stim/audio_stimuli/ankle.mp3","null","test","stim/audio_stimuli/ankle.mp3","","","156","list",""
"","","","","","audio-keyboard-response","175","391763","0.0-20.0-0.136","null","stim/audio_stimuli/boot.mp3","null","test","stim/audio_stimuli/boot.mp3","","","157","list",""
"","","","","","audio-keyboard-response","176","392776","0.0-20.0-0.137","null","stim/audio_stimuli/sock.mp3","null","test","stim/audio_stimuli/sock.mp3","","","158","list",""
"","","","","","audio-keyboard-response","177","394784","0.0-20.0-0.138","null","stim/audio_tones/tone_1.mp3","null","test","stim/audio_tones/tone_1.mp3","","","159","",""
"","","","","","audio-keyboard-response","178","397879","0.0-20.0-0.139","","","","test","stim/audio_stimuli/elastic.mp3","false","100","160","target","70"
"","","","","","audio-keyboard-response","179","397892","0.0-20.0-0.140","null","stim/audio_instructions/silence.mp3","null","test","stim/audio_instructions/silence.mp3","","","161","",""
"","","","","","audio-keyboard-response","180","401896","0.0-20.0-0.141","null","stim/audio_tones/tone_2.mp3","null","test","stim/audio_tones/tone_2.mp3","","","162","",""
"","","","","","audio-keyboard-response","181","401911","0.0-20.0-0.142","null","stim/audio_instructions/silence.mp3","null","test","stim/audio_instructions/silence.mp3","","","163","",""
"","","","","","audio-keyboard-response","182","402920","0.0-20.0-0.143","null","stim/audio_stimuli/aroma.mp3","null","test","stim/audio_stimuli/aroma.mp3","","","164","list",""
"","","","","","audio-keyboard-response","183","403931","0.0-20.0-0.144","null","stim/audio_stimuli/see.mp3","null","test","stim/audio_stimuli/see.mp3","","","165","list",""
"","","","","","audio-keyboard-response","184","404948","0.0-20.0-0.145","null","stim/audio_stimuli/whiff.mp3","null","test","stim/audio_stimuli/whiff.mp3","","","166","list",""
"","","","","","audio-keyboard-response","185","405960","0.0-20.0-0.146","null","stim/audio_stimuli/reek.mp3","null","test","stim/audio_stimuli/reek.mp3","","","167","list",""
"","","","","","audio-keyboard-response","186","406974","0.0-20.0-0.147","null","stim/audio_stimuli/fragrance.mp3","null","test","stim/audio_stimuli/fragrance.mp3","","","168","list",""
"","","","","","audio-keyboard-response","187","407988","0.0-20.0-0.148","null","stim/audio_stimuli/salts.mp3","null","test","stim/audio_stimuli/salts.mp3","","","169","list",""
"","","","","","audio-keyboard-response","188","410003","0.0-20.0-0.149","null","stim/audio_tones/tone_1.mp3","null","test","stim/audio_tones/tone_1.mp3","","","170","",""
"","","","","","audio-keyboard-response","189","415013","0.0-20.0-0.150","null","stim/audio_stimuli/smell.mp3","null","test","stim/audio_stimuli/smell.mp3","false","33.300000000000004","171","target","70"
"","","","","","audio-keyboard-response","190","415026","0.0-20.0-0.151","null","stim/audio_instructions/silence.mp3","null","test","stim/audio_instructions/silence.mp3","","","172","",""
"","","","","","audio-keyboard-response","191","419030","0.0-20.0-0.152","null","stim/audio_tones/tone_2.mp3","null","test","stim/audio_tones/tone_2.mp3","","","173","",""
"","","","","","audio-keyboard-response","192","419043","0.0-20.0-0.153","null","stim/audio_instructions/silence.mp3","null","test","stim/audio_instructions/silence.mp3","","","174","",""
"","","","","","audio-keyboard-response","193","420057","0.0-20.0-0.154","null","stim/audio_stimuli/charred.mp3","null","test","stim/audio_stimuli/charred.mp3","","","175","list",""
"","","","","","audio-keyboard-response","194","421071","0.0-20.0-0.155","null","stim/audio_stimuli/funeral.mp3","null","test","stim/audio_stimuli/funeral.mp3","","","176","list",""
"","","","","","audio-keyboard-response","195","422084","0.0-20.0-0.156","null","stim/audio_stimuli/white.mp3","null","test","stim/audio_stimuli/white.mp3","","","177","list",""
"","","","","","audio-keyboard-response","196","423096","0.0-20.0-0.157","null","stim/audio_stimuli/death.mp3","null","test","stim/audio_stimuli/death.mp3","","","178","list",""
"","","","","","audio-keyboard-response","197","424110","0.0-20.0-0.158","null","stim/audio_stimuli/bottom.mp3","null","test","stim/audio_stimuli/bottom.mp3","","","179","list",""
"","","","","","audio-keyboard-response","198","425122","0.0-20.0-0.159","null","stim/audio_stimuli/brown.mp3","null","test","stim/audio_stimuli/brown.mp3","","","180","list",""
"","","","","","audio-keyboard-response","199","427126","0.0-20.0-0.160","null","stim/audio_tones/tone_1.mp3","null","test","stim/audio_tones/tone_1.mp3","","","181","",""
"","","","","","audio-keyboard-response","200","432145","0.0-20.0-0.161","null","stim/audio_stimuli/white.mp3","null","test","stim/audio_stimuli/white.mp3","false","48.1","182","target","74"
"","","","","","audio-keyboard-response","201","432159","0.0-20.0-0.162","null","stim/audio_instructions/silence.mp3","null","test","stim/audio_instructions/silence.mp3","","","183","",""
"","","","","","audio-keyboard-response","202","436173","0.0-20.0-0.163","null","stim/audio_tones/tone_2.mp3","null","test","stim/audio_tones/tone_2.mp3","","","184","",""
"","","","","","audio-keyboard-response","203","436188","0.0-20.0-0.164","null","stim/audio_instructions/silence.mp3","null","test","stim/audio_instructions/silence.mp3","","","185","",""
"","","","","","audio-keyboard-response","204","437203","0.0-20.0-0.165","null","stim/audio_stimuli/sewing.mp3","null","test","stim/audio_stimuli/sewing.mp3","","","186","list",""
"","","","","","audio-keyboard-response","205","438219","0.0-20.0-0.166","null","stim/audio_stimuli/point.mp3","null","test","stim/audio_stimuli/point.mp3","","","187","list",""
"","","","","","audio-keyboard-response","206","439232","0.0-20.0-0.167","null","stim/audio_stimuli/thread.mp3","null","test","stim/audio_stimuli/thread.mp3","false","0","188","target","74"
"","","","","","audio-keyboard-response","207","440245","0.0-20.0-0.168","null","stim/audio_stimuli/thorn.mp3","null","test","stim/audio_stimuli/thorn.mp3","","","189","list",""
"","","","","","audio-keyboard-response","208","441248","0.0-20.0-0.169","null","stim/audio_stimuli/injection.mp3","null","test","stim/audio_stimuli/injection.mp3","","","190","list",""
"","","","","","audio-keyboard-response","209","442259","0.0-20.0-0.170","null","stim/audio_stimuli/cloth.mp3","null","test","stim/audio_stimuli/cloth.mp3","","","191","list",""
"","","","","","audio-keyboard-response","210","444261","0.0-20.0-0.171","null","stim/audio_tones/tone_1.mp3","null","test","stim/audio_tones/tone_1.mp3","","","192","",""
"","","","","","audio-keyboard-response","211","447222","0.0-20.0-0.172","","","","test","stim/audio_stimuli/thread.mp3","false","100","193","target","74"
"","","","","","audio-keyboard-response","212","447234","0.0-20.0-0.173","null","stim/audio_instructions/silence.mp3","null","test","stim/audio_instructions/silence.mp3","","","194","",""
"","","","","","audio-keyboard-response","213","451238","0.0-20.0-0.174","null","stim/audio_tones/tone_2.mp3","null","test","stim/audio_tones/tone_2.mp3","","","195","",""
"","","","","","audio-keyboard-response","214","451251","0.0-20.0-0.175","null","stim/audio_instructions/silence.mp3","null","test","stim/audio_instructions/silence.mp3","","","196","",""
"","","","","","audio-keyboard-response","215","452269","0.0-20.0-0.176","null","stim/audio_stimuli/gloves.mp3","null","test","stim/audio_stimuli/gloves.mp3","","","197","list",""
"","","","","","audio-keyboard-response","216","453272","0.0-20.0-0.177","null","stim/audio_stimuli/ball.mp3","null","test","stim/audio_stimuli/ball.mp3","","","198","list",""
"","","","","","audio-keyboard-response","217","454284","0.0-20.0-0.178","null","stim/audio_stimuli/springy.mp3","null","test","stim/audio_stimuli/springy.mp3","","","199","list",""
"","","","","","audio-keyboard-response","218","455300","0.0-20.0-0.179","null","stim/audio_stimuli/galoshes.mp3","null","test","stim/audio_stimuli/galoshes.mp3","","","200","list",""
"","","","","","audio-keyboard-response","219","456313","0.0-20.0-0.180","null","stim/audio_stimuli/latex.mp3","null","test","stim/audio_stimuli/latex.mp3","","","201","list",""
"","","","","","audio-keyboard-response","220","457328","0.0-20.0-0.181","null","stim/audio_stimuli/flexible.mp3","null","test","stim/audio_stimuli/flexible.mp3","","","202","list",""
"","","","","","audio-keyboard-response","221","459342","0.0-20.0-0.182","null","stim/audio_tones/tone_1.mp3","null","test","stim/audio_tones/tone_1.mp3","","","203","",""
"","","","","","audio-keyboard-response","222","464347","0.0-20.0-0.183","null","stim/audio_stimuli/rough.mp3","null","test","stim/audio_stimuli/rough.mp3","false","3.7","204","target","70"
"","","","","","audio-keyboard-response","223","464359","0.0-20.0-0.184","null","stim/audio_instructions/silence.mp3","null","test","stim/audio_instructions/silence.mp3","","","205","",""
"","","","","","audio-keyboard-response","224","468373","0.0-20.0-0.185","null","stim/audio_tones/tone_2.mp3","null","test","stim/audio_tones/tone_2.mp3","","","206","",""
"","","","","","audio-keyboard-response","225","468387","0.0-20.0-0.186","null","stim/audio_instructions/silence.mp3","null","test","stim/audio_instructions/silence.mp3","","","207","",""
"","","","","","audio-keyboard-response","226","469389","0.0-20.0-0.187","null","stim/audio_stimuli/sing.mp3","null","test","stim/audio_stimuli/sing.mp3","","","208","list",""
"","","","","","audio-keyboard-response","227","470405","0.0-20.0-0.188","null","stim/audio_stimuli/band.mp3","null","test","stim/audio_stimuli/band.mp3","","","209","list",""
"","","","","","audio-keyboard-response","228","471421","0.0-20.0-0.189","null","stim/audio_stimuli/horn.mp3","null","test","stim/audio_stimuli/horn.mp3","","","210","list",""
"","","","","","audio-keyboard-response","229","472435","0.0-20.0-0.190","null","stim/audio_stimuli/instrument.mp3","null","test","stim/audio_stimuli/instrument.mp3","","","211","list",""
"","","","","","audio-keyboard-response","230","473448","0.0-20.0-0.191","null","stim/audio_stimuli/jazz.mp3","null","test","stim/audio_stimuli/jazz.mp3","","","212","list",""
"","","","","","audio-keyboard-response","231","474462","0.0-20.0-0.192","null","stim/audio_stimuli/art.mp3","null","test","stim/audio_stimuli/art.mp3","","","213","list",""
"","","","","","audio-keyboard-response","232","476469","0.0-20.0-0.193","null","stim/audio_tones/tone_1.mp3","null","test","stim/audio_tones/tone_1.mp3","","","214","",""
"","","","","","audio-keyboard-response","233","481473","0.0-20.0-0.194","null","stim/audio_stimuli/music.mp3","null","test","stim/audio_stimuli/music.mp3","false","48.1","215","target","70"
"","","","","","audio-keyboard-response","234","481488","0.0-20.0-0.195","null","stim/audio_instructions/silence.mp3","null","test","stim/audio_instructions/silence.mp3","","","216","",""
"","","","","","audio-keyboard-response","235","485491","0.0-20.0-0.196","null","stim/audio_tones/tone_2.mp3","null","test","stim/audio_tones/tone_2.mp3","","","217","",""
"","","","","","audio-keyboard-response","236","485502","0.0-20.0-0.197","null","stim/audio_instructions/silence.mp3","null","test","stim/audio_instructions/silence.mp3","","","218","",""
"","","","","","audio-keyboard-response","237","486505","0.0-20.0-0.198","null","stim/audio_stimuli/listless.mp3","null","test","stim/audio_stimuli/listless.mp3","","","219","list",""
"","","","","","audio-keyboard-response","238","487510","0.0-20.0-0.199","null","stim/audio_stimuli/cautious.mp3","null","test","stim/audio_stimuli/cautious.mp3","","","220","list",""
"","","","","","audio-keyboard-response","239","488523","0.0-20.0-0.200","null","stim/audio_stimuli/traffic.mp3","null","test","stim/audio_stimuli/traffic.mp3","","","221","list",""
"","","","","","audio-keyboard-response","240","489539","0.0-20.0-0.201","null","stim/audio_stimuli/hesitant.mp3","null","test","stim/audio_stimuli/hesitant.mp3","","","222","list",""
"","","","","","audio-keyboard-response","241","490557","0.0-20.0-0.202","null","stim/audio_stimuli/quick.mp3","null","test","stim/audio_stimuli/quick.mp3","","","223","list",""
"","","","","","audio-keyboard-response","242","491572","0.0-20.0-0.203","null","stim/audio_stimuli/wait.mp3","null","test","stim/audio_stimuli/wait.mp3","","","224","list",""
"","","","","","audio-keyboard-response","243","493580","0.0-20.0-0.204","null","stim/audio_tones/tone_1.mp3","null","test","stim/audio_tones/tone_1.mp3","","","225","",""
"","","","","","audio-keyboard-response","244","498586","0.0-20.0-0.205","null","stim/audio_stimuli/slow.mp3","null","test","stim/audio_stimuli/slow.mp3","false","100","226","target","70"
"","","","","","audio-keyboard-response","245","498598","0.0-20.0-0.206","null","stim/audio_instructions/silence.mp3","null","test","stim/audio_instructions/silence.mp3","","","227","",""
"","","","","","audio-keyboard-response","246","502603","0.0-20.0-0.207","null","stim/audio_tones/tone_2.mp3","null","test","stim/audio_tones/tone_2.mp3","","","228","",""
"","","","","","audio-keyboard-response","247","502616","0.0-20.0-0.208","null","stim/audio_instructions/silence.mp3","null","test","stim/audio_instructions/silence.mp3","","","229","",""
"","","","","","audio-keyboard-response","248","503621","0.0-20.0-0.209","null","stim/audio_stimuli/kiwi.mp3","null","test","stim/audio_stimuli/kiwi.mp3","","","230","list",""
"","","","","","audio-keyboard-response","249","504636","0.0-20.0-0.210","null","stim/audio_stimuli/ripe.mp3","null","test","stim/audio_stimuli/ripe.mp3","","","231","list",""
"","","","","","audio-keyboard-response","250","505651","0.0-20.0-0.211","null","stim/audio_stimuli/apple.mp3","null","test","stim/audio_stimuli/apple.mp3","false","0","232","target","74"
"","","","","","audio-keyboard-response","251","506664","0.0-20.0-0.212","null","stim/audio_stimuli/cherry.mp3","null","test","stim/audio_stimuli/cherry.mp3","","","233","list",""
"","","","","","audio-keyboard-response","252","507670","0.0-20.0-0.213","null","stim/audio_stimuli/juice.mp3","null","test","stim/audio_stimuli/juice.mp3","","","234","list",""
"","","","","","audio-keyboard-response","253","508681","0.0-20.0-0.214","null","stim/audio_stimuli/bowl.mp3","null","test","stim/audio_stimuli/bowl.mp3","","","235","list",""
"","","","","","audio-keyboard-response","254","510692","0.0-20.0-0.215","null","stim/audio_tones/tone_1.mp3","null","test","stim/audio_tones/tone_1.mp3","","","236","",""
"","","","","","audio-keyboard-response","255","515697","0.0-20.0-0.216","null","stim/audio_stimuli/apple.mp3","null","test","stim/audio_stimuli/apple.mp3","false","100","237","target","74"
"","","","","","audio-keyboard-response","256","515711","0.0-20.0-0.217","null","stim/audio_instructions/silence.mp3","null","test","stim/audio_instructions/silence.mp3","","","238","",""
"","","","","","audio-keyboard-response","257","519714","0.0-20.0-0.218","null","stim/audio_tones/tone_2.mp3","null","test","stim/audio_tones/tone_2.mp3","","","239","",""
"","","","","","audio-keyboard-response","258","519728","0.0-20.0-0.219","null","stim/audio_instructions/silence.mp3","null","test","stim/audio_instructions/silence.mp3","","","240","",""
"","","","","","audio-keyboard-response","259","520735","0.0-20.0-0.220","null","stim/audio_stimuli/lawyer.mp3","null","test","stim/audio_stimuli/lawyer.mp3","","","241","list",""
"","","","","","audio-keyboard-response","260","521744","0.0-20.0-0.221","null","stim/audio_stimuli/health.mp3","null","test","stim/audio_stimuli/health.mp3","","","242","list",""
"","","","","","audio-keyboard-response","261","522761","0.0-20.0-0.222","null","stim/audio_stimuli/dentist.mp3","null","test","stim/audio_stimuli/dentist.mp3","","","243","list",""
"","","","","","audio-keyboard-response","262","523778","0.0-20.0-0.223","null","stim/audio_stimuli/ill.mp3","null","test","stim/audio_stimuli/ill.mp3","","","244","list",""
"","","","","","audio-keyboard-response","263","524782","0.0-20.0-0.224","null","stim/audio_stimuli/office.mp3","null","test","stim/audio_stimuli/office.mp3","","","245","list",""
"","","","","","audio-keyboard-response","264","525795","0.0-20.0-0.225","null","stim/audio_stimuli/surgeon.mp3","null","test","stim/audio_stimuli/surgeon.mp3","","","246","list",""
"","","","","","audio-keyboard-response","265","527806","0.0-20.0-0.226","null","stim/audio_tones/tone_1.mp3","null","test","stim/audio_tones/tone_1.mp3","","","247","",""
"","","","","","audio-keyboard-response","266","532809","0.0-20.0-0.227","null","stim/audio_stimuli/nose.mp3","null","test","stim/audio_stimuli/nose.mp3","false","77.7","248","target","70"
"","","","","","audio-keyboard-response","267","532820","0.0-20.0-0.228","null","stim/audio_instructions/silence.mp3","null","test","stim/audio_instructions/silence.mp3","","","249","",""
"","","","","","audio-keyboard-response","268","536837","0.0-20.0-0.229","null","stim/audio_tones/tone_2.mp3","null","test","stim/audio_tones/tone_2.mp3","","","250","",""
"","","","","","audio-keyboard-response","269","536849","0.0-20.0-0.230","null","stim/audio_instructions/silence.mp3","null","test","stim/audio_instructions/silence.mp3","","","251","",""
"","","","","","audio-keyboard-response","270","537864","0.0-20.0-0.231","null","stim/audio_stimuli/leak.mp3","null","test","stim/audio_stimuli/leak.mp3","","","252","list",""
"","","","","","audio-keyboard-response","271","538868","0.0-20.0-0.232","null","stim/audio_stimuli/felt.mp3","null","test","stim/audio_stimuli/felt.mp3","","","253","list",""
"","","","","","audio-keyboard-response","272","539871","0.0-20.0-0.233","null","stim/audio_stimuli/pencil.mp3","null","test","stim/audio_stimuli/pencil.mp3","false","0","254","target","74"
"","","","","","audio-keyboard-response","273","540885","0.0-20.0-0.234","null","stim/audio_stimuli/cross.mp3","null","test","stim/audio_stimuli/cross.mp3","","","255","list",""
"","","","","","audio-keyboard-response","274","541901","0.0-20.0-0.235","null","stim/audio_stimuli/marker.mp3","null","test","stim/audio_stimuli/marker.mp3","","","256","list",""
"","","","","","audio-keyboard-response","275","542917","0.0-20.0-0.236","null","stim/audio_stimuli/cap.mp3","null","test","stim/audio_stimuli/cap.mp3","","","257","list",""
"","","","","","audio-keyboard-response","276","544934","0.0-20.0-0.237","null","stim/audio_tones/tone_1.mp3","null","test","stim/audio_tones/tone_1.mp3","","","258","",""
"","","","","","audio-keyboard-response","277","549940","0.0-20.0-0.238","null","stim/audio_stimuli/pencil.mp3","null","test","stim/audio_stimuli/pencil.mp3","false","74","259","target","74"
"","","","","","audio-keyboard-response","278","549951","0.0-20.0-0.239","null","stim/audio_instructions/silence.mp3","null","test","stim/audio_instructions/silence.mp3","","","260","",""
"","","","","","audio-keyboard-response","279","553957","0.0-20.0-0.240","null","stim/audio_tones/tone_2.mp3","null","test","stim/audio_tones/tone_2.mp3","","","261","",""
"","","","","","audio-keyboard-response","280","553970","0.0-20.0-0.241","null","stim/audio_instructions/silence.mp3","null","test","stim/audio_instructions/silence.mp3","","","262","",""
"","","","","","audio-keyboard-response","281","554975","0.0-20.0-0.242","null","stim/audio_stimuli/sniff.mp3","null","test","stim/audio_stimuli/sniff.mp3","","","263","list",""
"","","","","","audio-keyboard-response","282","555977","0.0-20.0-0.243","null","stim/audio_stimuli/hear.mp3","null","test","stim/audio_stimuli/hear.mp3","","","264","list",""
"","","","","","audio-keyboard-response","283","556988","0.0-20.0-0.244","null","stim/audio_stimuli/nostril.mp3","null","test","stim/audio_stimuli/nostril.mp3","","","265","list",""
"","","","","","audio-keyboard-response","284","558003","0.0-20.0-0.245","null","stim/audio_stimuli/scent.mp3","null","test","stim/audio_stimuli/scent.mp3","","","266","list",""
"","","","","","audio-keyboard-response","285","559016","0.0-20.0-0.246","null","stim/audio_stimuli/stench.mp3","null","test","stim/audio_stimuli/stench.mp3","","","267","list",""
"","","","","","audio-keyboard-response","286","560030","0.0-20.0-0.247","null","stim/audio_stimuli/perfume.mp3","null","test","stim/audio_stimuli/perfume.mp3","","","268","list",""
"","","","","","audio-keyboard-response","287","562040","0.0-20.0-0.248","null","stim/audio_tones/tone_1.mp3","null","test","stim/audio_tones/tone_1.mp3","","","269","",""
"","","","","","audio-keyboard-response","288","565746","0.0-20.0-0.249","","","","test","stim/audio_stimuli/cold.mp3","false","100","270","target","70"
"","","","","","audio-keyboard-response","289","565759","0.0-20.0-0.250","null","stim/audio_instructions/silence.mp3","null","test","stim/audio_instructions/silence.mp3","","","271","",""
"","","","","","audio-keyboard-response","290","569774","0.0-20.0-0.251","null","stim/audio_tones/tone_2.mp3","null","test","stim/audio_tones/tone_2.mp3","","","272","",""
"","","","","","audio-keyboard-response","291","569788","0.0-20.0-0.252","null","stim/audio_instructions/silence.mp3","null","test","stim/audio_instructions/silence.mp3","","","273","",""
"","","","","","audio-keyboard-response","292","570802","0.0-20.0-0.253","null","stim/audio_stimuli/eat.mp3","null","test","stim/audio_stimuli/eat.mp3","","","274","list",""
"","","","","","audio-keyboard-response","293","571819","0.0-20.0-0.254","null","stim/audio_stimuli/rye.mp3","null","test","stim/audio_stimuli/rye.mp3","","","275","list",""
"","","","","","audio-keyboard-response","294","572831","0.0-20.0-0.255","null","stim/audio_stimuli/milk.mp3","null","test","stim/audio_stimuli/milk.mp3","","","276","list",""
"","","","","","audio-keyboard-response","295","573841","0.0-20.0-0.256","null","stim/audio_stimuli/jelly.mp3","null","test","stim/audio_stimuli/jelly.mp3","","","277","list",""
"","","","","","audio-keyboard-response","296","574845","0.0-20.0-0.257","null","stim/audio_stimuli/crust.mp3","null","test","stim/audio_stimuli/crust.mp3","","","278","list",""
"","","","","","audio-keyboard-response","297","575857","0.0-20.0-0.258","null","stim/audio_stimuli/wine.mp3","null","test","stim/audio_stimuli/wine.mp3","","","279","list",""
"","","","","","audio-keyboard-response","298","577867","0.0-20.0-0.259","null","stim/audio_tones/tone_1.mp3","null","test","stim/audio_tones/tone_1.mp3","","","280","",""
"","","","","","audio-keyboard-response","299","582879","0.0-20.0-0.260","null","stim/audio_stimuli/note.mp3","null","test","stim/audio_stimuli/note.mp3","false","11.100000000000001","281","target","70"
"","","","","","audio-keyboard-response","300","582894","0.0-20.0-0.261","null","stim/audio_instructions/silence.mp3","null","test","stim/audio_instructions/silence.mp3","","","282","",""
"","","","","","audio-keyboard-response","301","586898","0.0-20.0-0.262","null","stim/audio_tones/tone_2.mp3","null","test","stim/audio_tones/tone_2.mp3","","","283","",""
"","","","","","audio-keyboard-response","302","586910","0.0-20.0-0.263","null","stim/audio_instructions/silence.mp3","null","test","stim/audio_instructions/silence.mp3","","","284","",""
"","","","","","audio-keyboard-response","303","587913","0.0-20.0-0.264","null","stim/audio_stimuli/piano.mp3","null","test","stim/audio_stimuli/piano.mp3","","","285","list",""
"","","","","","audio-keyboard-response","304","588926","0.0-20.0-0.265","null","stim/audio_stimuli/radio.mp3","null","test","stim/audio_stimuli/radio.mp3","","","286","list",""
"","","","","","audio-keyboard-response","305","589941","0.0-20.0-0.266","null","stim/audio_stimuli/melody.mp3","null","test","stim/audio_stimuli/melody.mp3","","","287","list",""
"","","","","","audio-keyboard-response","306","590958","0.0-20.0-0.267","null","stim/audio_stimuli/concert.mp3","null","test","stim/audio_stimuli/concert.mp3","","","288","list",""
"","","","","","audio-keyboard-response","307","591972","0.0-20.0-0.268","null","stim/audio_stimuli/symphony.mp3","null","test","stim/audio_stimuli/symphony.mp3","","","289","list",""
"","","","","","audio-keyboard-response","308","592988","0.0-20.0-0.269","null","stim/audio_stimuli/orchestra.mp3","null","test","stim/audio_stimuli/orchestra.mp3","","","290","list",""
"","","","","","audio-keyboard-response","309","594992","0.0-20.0-0.270","null","stim/audio_tones/tone_1.mp3","null","test","stim/audio_tones/tone_1.mp3","","","291","",""
"","","","","","audio-keyboard-response","310","598117","0.0-20.0-0.271","","","","test","stim/audio_stimuli/river.mp3","false","100","292","target","70"
"","","","","","audio-keyboard-response","311","598130","0.0-20.0-0.272","null","stim/audio_instructions/silence.mp3","null","test","stim/audio_instructions/silence.mp3","","","293","",""
"","","","","","audio-keyboard-response","312","602131","0.0-20.0-0.273","null","stim/audio_tones/tone_2.mp3","null","test","stim/audio_tones/tone_2.mp3","","","294","",""
"","","","","","audio-keyboard-response","313","602144","0.0-20.0-0.274","null","stim/audio_instructions/silence.mp3","null","test","stim/audio_instructions/silence.mp3","","","295","",""
"","","","","","audio-keyboard-response","314","603150","0.0-20.0-0.275","null","stim/audio_stimuli/cat.mp3","null","test","stim/audio_stimuli/cat.mp3","","","296","list",""
"","","","","","audio-keyboard-response","315","604165","0.0-20.0-0.276","null","stim/audio_stimuli/night.mp3","null","test","stim/audio_stimuli/night.mp3","","","297","list",""
"","","","","","audio-keyboard-response","316","605175","0.0-20.0-0.277","null","stim/audio_stimuli/color.mp3","null","test","stim/audio_stimuli/color.mp3","","","298","list",""
"","","","","","audio-keyboard-response","317","606189","0.0-20.0-0.278","null","stim/audio_stimuli/blue.mp3","null","test","stim/audio_stimuli/blue.mp3","","","299","list",""
"","","","","","audio-keyboard-response","318","607202","0.0-20.0-0.279","null","stim/audio_stimuli/ink.mp3","null","test","stim/audio_stimuli/ink.mp3","","","300","list",""
"","","","","","audio-keyboard-response","319","608204","0.0-20.0-0.280","null","stim/audio_stimuli/coal.mp3","null","test","stim/audio_stimuli/coal.mp3","","","301","list",""
"","","","","","audio-keyboard-response","320","610216","0.0-20.0-0.281","null","stim/audio_tones/tone_1.mp3","null","test","stim/audio_tones/tone_1.mp3","","","302","",""
"","","","","","audio-keyboard-response","321","613195","0.0-20.0-0.282","","","","test","stim/audio_stimuli/fast.mp3","false","100","303","target","70"
"","","","","","audio-keyboard-response","322","613207","0.0-20.0-0.283","null","stim/audio_instructions/silence.mp3","null","test","stim/audio_instructions/silence.mp3","","","304","",""
"","","","","","audio-keyboard-response","323","617217","0.0-20.0-0.284","null","stim/audio_tones/tone_2.mp3","null","test","stim/audio_tones/tone_2.mp3","","","305","",""
"","","","","","audio-keyboard-response","324","617230","0.0-20.0-0.285","null","stim/audio_instructions/silence.mp3","null","test","stim/audio_instructions/silence.mp3","","","306","",""
"","","","","","audio-keyboard-response","325","618247","0.0-20.0-0.286","null","stim/audio_stimuli/stars.mp3","null","test","stim/audio_stimuli/stars.mp3","","","307","list",""
"","","","","","audio-keyboard-response","326","619263","0.0-20.0-0.287","null","stim/audio_stimuli/stripes.mp3","null","test","stim/audio_stimuli/stripes.mp3","","","308","list",""
"","","","","","audio-keyboard-response","327","620278","0.0-20.0-0.288","null","stim/audio_stimuli/wave.mp3","null","test","stim/audio_stimuli/wave.mp3","","","309","list",""
"","","","","","audio-keyboard-response","328","621280","0.0-20.0-0.289","null","stim/audio_stimuli/national.mp3","null","test","stim/audio_stimuli/national.mp3","","","310","list",""
"","","","","","audio-keyboard-response","329","622291","0.0-20.0-0.290","null","stim/audio_stimuli/emblem.mp3","null","test","stim/audio_stimuli/emblem.mp3","","","311","list",""
"","","","","","audio-keyboard-response","330","623308","0.0-20.0-0.291","null","stim/audio_stimuli/freedom.mp3","null","test","stim/audio_stimuli/freedom.mp3","","","312","list",""
"","","","","","audio-keyboard-response","331","625321","0.0-20.0-0.292","null","stim/audio_tones/tone_1.mp3","null","test","stim/audio_tones/tone_1.mp3","","","313","",""
"","","","","","audio-keyboard-response","332","630327","0.0-20.0-0.293","null","stim/audio_stimuli/flag.mp3","null","test","stim/audio_stimuli/flag.mp3","false","96.2","314","target","70"
"","","","","","audio-keyboard-response","333","630341","0.0-20.0-0.294","null","stim/audio_instructions/silence.mp3","null","test","stim/audio_instructions/silence.mp3","","","315","",""
"","","","","","audio-keyboard-response","334","634359","0.0-20.0-0.295","null","stim/audio_tones/tone_2.mp3","null","test","stim/audio_tones/tone_2.mp3","","","316","",""
"","","","","","audio-keyboard-response","335","634372","0.0-20.0-0.296","null","stim/audio_instructions/silence.mp3","null","test","stim/audio_instructions/silence.mp3","","","317","",""
"","","","","","audio-keyboard-response","336","635378","0.0-20.0-0.297","null","stim/audio_stimuli/eye.mp3","null","test","stim/audio_stimuli/eye.mp3","","","318","list",""
"","","","","","audio-keyboard-response","337","636389","0.0-20.0-0.298","null","stim/audio_stimuli/sharp.mp3","null","test","stim/audio_stimuli/sharp.mp3","","","319","list",""
"","","","","","audio-keyboard-response","338","637403","0.0-20.0-0.299","null","stim/audio_stimuli/prick.mp3","null","test","stim/audio_stimuli/prick.mp3","","","320","list",""
"","","","","","audio-keyboard-response","339","638420","0.0-20.0-0.300","null","stim/audio_stimuli/haystack.mp3","null","test","stim/audio_stimuli/haystack.mp3","","","321","list",""
"","","","","","audio-keyboard-response","340","639423","0.0-20.0-0.301","null","stim/audio_stimuli/hurt.mp3","null","test","stim/audio_stimuli/hurt.mp3","","","322","list",""
"","","","","","audio-keyboard-response","341","640440","0.0-20.0-0.302","null","stim/audio_stimuli/syringe.mp3","null","test","stim/audio_stimuli/syringe.mp3","","","323","list",""
"","","","","","audio-keyboard-response","342","642446","0.0-20.0-0.303","null","stim/audio_tones/tone_1.mp3","null","test","stim/audio_tones/tone_1.mp3","","","324","",""
"","","","","","audio-keyboard-response","343","647459","0.0-20.0-0.304","null","stim/audio_stimuli/banner.mp3","null","test","stim/audio_stimuli/banner.mp3","false","100","325","target","70"
"","","","","","audio-keyboard-response","344","647472","0.0-20.0-0.305","null","stim/audio_instructions/silence.mp3","null","test","stim/audio_instructions/silence.mp3","","","326","",""
"","","","","","audio-keyboard-response","345","651483","0.0-20.0-0.306","null","stim/audio_tones/tone_2.mp3","null","test","stim/audio_tones/tone_2.mp3","","","327","",""
"","","","","","audio-keyboard-response","346","651495","0.0-20.0-0.307","null","stim/audio_instructions/silence.mp3","null","test","stim/audio_instructions/silence.mp3","","","328","",""
"","","","","","audio-keyboard-response","347","652503","0.0-20.0-0.308","null","stim/audio_stimuli/orange.mp3","null","test","stim/audio_stimuli/orange.mp3","","","329","list",""
"","","","","","audio-keyboard-response","348","653516","0.0-20.0-0.309","null","stim/audio_stimuli/citrus.mp3","null","test","stim/audio_stimuli/citrus.mp3","","","330","list",""
"","","","","","audio-keyboard-response","349","654532","0.0-20.0-0.310","null","stim/audio_stimuli/pear.mp3","null","test","stim/audio_stimuli/pear.mp3","","","331","list",""
"","","","","","audio-keyboard-response","350","655546","0.0-20.0-0.311","null","stim/audio_stimuli/berry.mp3","null","test","stim/audio_stimuli/berry.mp3","","","332","list",""
"","","","","","audio-keyboard-response","351","656551","0.0-20.0-0.312","null","stim/audio_stimuli/basket.mp3","null","test","stim/audio_stimuli/basket.mp3","","","333","list",""
"","","","","","audio-keyboard-response","352","657568","0.0-20.0-0.313","null","stim/audio_stimuli/salad.mp3","null","test","stim/audio_stimuli/salad.mp3","","","334","list",""
"","","","","","audio-keyboard-response","353","659585","0.0-20.0-0.314","null","stim/audio_tones/tone_1.mp3","null","test","stim/audio_tones/tone_1.mp3","","","335","",""
"","","","","","audio-keyboard-response","354","662244","0.0-20.0-0.315","","","","test","stim/audio_stimuli/low.mp3","false","100","336","target","70"
"","","","","","audio-keyboard-response","355","662256","0.0-20.0-0.316","null","stim/audio_instructions/silence.mp3","null","test","stim/audio_instructions/silence.mp3","","","337","",""
"","","","","","audio-keyboard-response","356","666265","0.0-20.0-0.317","null","stim/audio_tones/tone_2.mp3","null","test","stim/audio_tones/tone_2.mp3","","","338","",""
"","","","","","audio-keyboard-response","357","666277","0.0-20.0-0.318","null","stim/audio_instructions/silence.mp3","null","test","stim/audio_instructions/silence.mp3","","","339","",""
"","","","","","audio-keyboard-response","358","667278","0.0-20.0-0.319","null","stim/audio_stimuli/fountain.mp3","null","test","stim/audio_stimuli/fountain.mp3","","","340","list",""
"","","","","","audio-keyboard-response","359","668294","0.0-20.0-0.320","null","stim/audio_stimuli/quill.mp3","null","test","stim/audio_stimuli/quill.mp3","","","341","list",""
"","","","","","audio-keyboard-response","360","669304","0.0-20.0-0.321","null","stim/audio_stimuli/bic.mp3","null","test","stim/audio_stimuli/bic.mp3","","","342","list",""
"","","","","","audio-keyboard-response","361","670320","0.0-20.0-0.322","null","stim/audio_stimuli/crayon.mp3","null","test","stim/audio_stimuli/crayon.mp3","","","343","list",""
"","","","","","audio-keyboard-response","362","671333","0.0-20.0-0.323","null","stim/audio_stimuli/tip.mp3","null","test","stim/audio_stimuli/tip.mp3","","","344","list",""
"","","","","","audio-keyboard-response","363","672343","0.0-20.0-0.324","null","stim/audio_stimuli/red.mp3","null","test","stim/audio_stimuli/red.mp3","","","345","list",""
"","","","","","audio-keyboard-response","364","674351","0.0-20.0-0.325","null","stim/audio_tones/tone_1.mp3","null","test","stim/audio_tones/tone_1.mp3","","","346","",""
"","","","","","audio-keyboard-response","365","679358","0.0-20.0-0.326","null","stim/audio_stimuli/truck.mp3","null","test","stim/audio_stimuli/truck.mp3","false","99.9","347","target","70"
"","","","","","audio-keyboard-response","366","679372","0.0-20.0-0.327","null","stim/audio_instructions/silence.mp3","null","test","stim/audio_instructions/silence.mp3","","","348","",""
"","","","","","audio-keyboard-response","367","683375","0.0-20.0-0.328","null","stim/audio_tones/tone_2.mp3","null","test","stim/audio_tones/tone_2.mp3","","","349","",""
"","","","","","audio-keyboard-response","368","683388","0.0-20.0-0.329","null","stim/audio_instructions/silence.mp3","null","test","stim/audio_instructions/silence.mp3","","","350","",""
"","","","","","audio-keyboard-response","369","684392","0.0-20.0-0.330","null","stim/audio_stimuli/tired.mp3","null","test","stim/audio_stimuli/tired.mp3","","","351","list",""
"","","","","","audio-keyboard-response","370","685403","0.0-20.0-0.331","null","stim/audio_stimuli/wake.mp3","null","test","stim/audio_stimuli/wake.mp3","","","352","list",""
"","","","","","audio-keyboard-response","371","686418","0.0-20.0-0.332","null","stim/audio_stimuli/blanket.mp3","null","test","stim/audio_stimuli/blanket.mp3","","","353","list",""
"","","","","","audio-keyboard-response","372","687432","0.0-20.0-0.333","null","stim/audio_stimuli/bed.mp3","null","test","stim/audio_stimuli/bed.mp3","","","354","list",""
"","","","","","audio-keyboard-response","373","688447","0.0-20.0-0.334","null","stim/audio_stimuli/nap.mp3","null","test","stim/audio_stimuli/nap.mp3","","","355","list",""
"","","","","","audio-keyboard-response","374","689462","0.0-20.0-0.335","null","stim/audio_stimuli/yawn.mp3","null","test","stim/audio_stimuli/yawn.mp3","","","356","list",""
"","","","","","audio-keyboard-response","375","691473","0.0-20.0-0.336","null","stim/audio_tones/tone_1.mp3","null","test","stim/audio_tones/tone_1.mp3","","","357","",""
"","","","","","audio-keyboard-response","376","696478","0.0-20.0-0.337","null","stim/audio_stimuli/bed.mp3","null","test","stim/audio_stimuli/bed.mp3","false","100","358","target","74"
"","","","","","audio-keyboard-response","377","696493","0.0-20.0-0.338","null","stim/audio_instructions/silence.mp3","null","test","stim/audio_instructions/silence.mp3","","","359","",""
"","","","","","audio-keyboard-response","378","700504","0.0-20.0-0.339","null","stim/audio_tones/tone_2.mp3","null","test","stim/audio_tones/tone_2.mp3","","","360","",""
"","","","","","audio-keyboard-response","379","700518","0.0-20.0-0.340","null","stim/audio_instructions/silence.mp3","null","test","stim/audio_instructions/silence.mp3","","","361","",""
"","","","","","audio-keyboard-response","380","701531","0.0-20.0-0.341","null","stim/audio_stimuli/stop.mp3","null","test","stim/audio_stimuli/stop.mp3","","","362","list",""
"","","","","","audio-keyboard-response","381","702544","0.0-20.0-0.342","null","stim/audio_stimuli/snail.mp3","null","test","stim/audio_stimuli/snail.mp3","","","363","list",""
"","","","","","audio-keyboard-response","382","703560","0.0-20.0-0.343","null","stim/audio_stimuli/delay.mp3","null","test","stim/audio_stimuli/delay.mp3","","","364","list",""
"","","","","","audio-keyboard-response","383","704573","0.0-20.0-0.344","null","stim/audio_stimuli/turtle.mp3","null","test","stim/audio_stimuli/turtle.mp3","","","365","list",""
"","","","","","audio-keyboard-response","384","705591","0.0-20.0-0.345","null","stim/audio_stimuli/speed.mp3","null","test","stim/audio_stimuli/speed.mp3","","","366","list",""
"","","","","","audio-keyboard-response","385","706605","0.0-20.0-0.346","null","stim/audio_stimuli/sluggish.mp3","null","test","stim/audio_stimuli/sluggish.mp3","","","367","list",""
"","","","","","audio-keyboard-response","386","708619","0.0-20.0-0.347","null","stim/audio_tones/tone_1.mp3","null","test","stim/audio_tones/tone_1.mp3","","","368","",""
"","","","","","audio-keyboard-response","387","711406","0.0-20.0-0.348","","","","test","stim/audio_stimuli/spider.mp3","false","100","369","target","70"
"","","","","","audio-keyboard-response","388","711418","0.0-20.0-0.349","null","stim/audio_instructions/silence.mp3","null","test","stim/audio_instructions/silence.mp3","","","370","",""
"","","","","","audio-keyboard-response","389","715422","0.0-20.0-0.350","null","stim/audio_tones/tone_2.mp3","null","test","stim/audio_tones/tone_2.mp3","","","371","",""
"","","","","","audio-keyboard-response","390","715435","0.0-20.0-0.351","null","stim/audio_instructions/silence.mp3","null","test","stim/audio_instructions/silence.mp3","","","372","",""
"","","","","","audio-keyboard-response","391","716437","0.0-20.0-0.352","null","stim/audio_stimuli/shade.mp3","null","test","stim/audio_stimuli/shade.mp3","","","373","list",""
"","","","","","audio-keyboard-response","392","717452","0.0-20.0-0.353","null","stim/audio_stimuli/sill.mp3","null","test","stim/audio_stimuli/sill.mp3","","","374","list",""
"","","","","","audio-keyboard-response","393","718463","0.0-20.0-0.354","null","stim/audio_stimuli/open.mp3","null","test","stim/audio_stimuli/open.mp3","","","375","list",""
"","","","","","audio-keyboard-response","394","719478","0.0-20.0-0.355","null","stim/audio_stimuli/door.mp3","null","test","stim/audio_stimuli/door.mp3","false","0","376","target","74"
"","","","","","audio-keyboard-response","395","720492","0.0-20.0-0.356","null","stim/audio_stimuli/breeze.mp3","null","test","stim/audio_stimuli/breeze.mp3","","","377","list",""
"","","","","","audio-keyboard-response","396","721496","0.0-20.0-0.357","null","stim/audio_stimuli/screen.mp3","null","test","stim/audio_stimuli/screen.mp3","","","378","list",""
"","","","","","audio-keyboard-response","397","723514","0.0-20.0-0.358","null","stim/audio_tones/tone_1.mp3","null","test","stim/audio_tones/tone_1.mp3","","","379","",""
"","","","","","audio-keyboard-response","398","726389","0.0-20.0-0.359","","","","test","stim/audio_stimuli/door.mp3","false","100","380","target","74"
"","","","","","audio-keyboard-response","399","726402","0.0-20.0-0.360","null","stim/audio_instructions/silence.mp3","null","test","stim/audio_instructions/silence.mp3","","","381","",""
"","","","","","audio-keyboard-response","400","730403","0.0-20.0-0.361","null","stim/audio_tones/tone_2.mp3","null","test","stim/audio_tones/tone_2.mp3","","","382","",""
"","","","","","audio-keyboard-response","401","730418","0.0-20.0-0.362","null","stim/audio_instructions/silence.mp3","null","test","stim/audio_instructions/silence.mp3","","","383","",""
"","","","","","audio-keyboard-response","402","731429","0.0-20.0-0.363","null","stim/audio_stimuli/tall.mp3","null","test","stim/audio_stimuli/tall.mp3","","","384","list",""
"","","","","","audio-keyboard-response","403","732446","0.0-20.0-0.364","null","stim/audio_stimuli/jump.mp3","null","test","stim/audio_stimuli/jump.mp3","","","385","list",""
"","","","","","audio-keyboard-response","404","733462","0.0-20.0-0.365","null","stim/audio_stimuli/building.mp3","null","test","stim/audio_stimuli/building.mp3","","","386","list",""
"","","","","","audio-keyboard-response","405","734477","0.0-20.0-0.366","null","stim/audio_stimuli/cliff.mp3","null","test","stim/audio_stimuli/cliff.mp3","","","387","list",""
"","","","","","audio-keyboard-response","406","735492","0.0-20.0-0.367","null","stim/audio_stimuli/over.mp3","null","test","stim/audio_stimuli/over.mp3","","","388","list",""
"","","","","","audio-keyboard-response","407","736507","0.0-20.0-0.368","null","stim/audio_stimuli/dive.mp3","null","test","stim/audio_stimuli/dive.mp3","","","389","list",""
"","","","","","audio-keyboard-response","408","738519","0.0-20.0-0.369","null","stim/audio_tones/tone_1.mp3","null","test","stim/audio_tones/tone_1.mp3","","","390","",""
"","","","","","audio-keyboard-response","409","743533","0.0-20.0-0.370","null","stim/audio_stimuli/high.mp3","null","test","stim/audio_stimuli/high.mp3","false","96.2","391","target","70"
"","","","","","audio-keyboard-response","410","743547","0.0-20.0-0.371","null","stim/audio_instructions/silence.mp3","null","test","stim/audio_instructions/silence.mp3","","","392","",""
"","","","","","audio-keyboard-response","411","747550","0.0-20.0-0.372","null","stim/audio_tones/tone_2.mp3","null","test","stim/audio_tones/tone_2.mp3","","","393","",""
"","","","","","audio-keyboard-response","412","747564","0.0-20.0-0.373","null","stim/audio_instructions/silence.mp3","null","test","stim/audio_instructions/silence.mp3","","","394","",""
"","","","","","audio-keyboard-response","413","748580","0.0-20.0-0.374","null","stim/audio_stimuli/automobile.mp3","null","test","stim/audio_stimuli/automobile.mp3","","","395","list",""
"","","","","","audio-keyboard-response","414","749593","0.0-20.0-0.375","null","stim/audio_stimuli/drive.mp3","null","test","stim/audio_stimuli/drive.mp3","","","396","list",""
"","","","","","audio-keyboard-response","415","750610","0.0-20.0-0.376","null","stim/audio_stimuli/ford.mp3","null","test","stim/audio_stimuli/ford.mp3","","","397","list",""
"","","","","","audio-keyboard-response","416","751624","0.0-20.0-0.377","null","stim/audio_stimuli/keys.mp3","null","test","stim/audio_stimuli/keys.mp3","","","398","list",""
"","","","","","audio-keyboard-response","417","752635","0.0-20.0-0.378","null","stim/audio_stimuli/highway.mp3","null","test","stim/audio_stimuli/highway.mp3","","","399","list",""
"","","","","","audio-keyboard-response","418","753651","0.0-20.0-0.379","null","stim/audio_stimuli/van.mp3","null","test","stim/audio_stimuli/van.mp3","","","400","list",""
"","","","","","audio-keyboard-response","419","755655","0.0-20.0-0.380","null","stim/audio_tones/tone_1.mp3","null","test","stim/audio_tones/tone_1.mp3","","","401","",""
"","","","","","audio-keyboard-response","420","760665","0.0-20.0-0.381","null","stim/audio_stimuli/car.mp3","null","test","stim/audio_stimuli/car.mp3","false","44.400000000000006","402","target","70"
"","","","","","audio-keyboard-response","421","760679","0.0-20.0-0.382","null","stim/audio_instructions/silence.mp3","null","test","stim/audio_instructions/silence.mp3","","","403","",""
"","","","","","audio-keyboard-response","422","764682","0.0-20.0-0.383","null","stim/audio_tones/tone_2.mp3","null","test","stim/audio_tones/tone_2.mp3","","","404","",""
"","","","","","audio-keyboard-response","423","764693","0.0-20.0-0.384","null","stim/audio_instructions/silence.mp3","null","test","stim/audio_instructions/silence.mp3","","","405","",""
"","","","","","audio-keyboard-response","424","765698","0.0-20.0-0.385","null","stim/audio_stimuli/lady.mp3","null","test","stim/audio_stimuli/lady.mp3","","","406","list",""
"","","","","","audio-keyboard-response","425","766711","0.0-20.0-0.386","null","stim/audio_stimuli/male.mp3","null","test","stim/audio_stimuli/male.mp3","","","407","list",""
"","","","","","audio-keyboard-response","426","767716","0.0-20.0-0.387","null","stim/audio_stimuli/strong.mp3","null","test","stim/audio_stimuli/strong.mp3","","","408","list",""
"","","","","","audio-keyboard-response","427","768730","0.0-20.0-0.388","null","stim/audio_stimuli/woman.mp3","null","test","stim/audio_stimuli/woman.mp3","false","0","409","target","74"
"","","","","","audio-keyboard-response","428","769743","0.0-20.0-0.389","null","stim/audio_stimuli/handsome.mp3","null","test","stim/audio_stimuli/handsome.mp3","","","410","list",""
"","","","","","audio-keyboard-response","429","770751","0.0-20.0-0.390","null","stim/audio_stimuli/suit.mp3","null","test","stim/audio_stimuli/suit.mp3","","","411","list",""
"","","","","","audio-keyboard-response","430","772754","0.0-20.0-0.391","null","stim/audio_tones/tone_1.mp3","null","test","stim/audio_tones/tone_1.mp3","","","412","",""
"","","","","","audio-keyboard-response","431","775524","0.0-20.0-0.392","","","","test","stim/audio_stimuli/woman.mp3","false","100","413","target","74"
"","","","","","audio-keyboard-response","432","775537","0.0-20.0-0.393","null","stim/audio_instructions/silence.mp3","null","test","stim/audio_instructions/silence.mp3","","","414","",""
"","","","","","audio-keyboard-response","433","779546","0.0-20.0-0.394","null","stim/audio_tones/tone_2.mp3","null","test","stim/audio_tones/tone_2.mp3","","","415","",""
"","","","","","audio-keyboard-response","434","779558","0.0-20.0-0.395","null","stim/audio_instructions/silence.mp3","null","test","stim/audio_instructions/silence.mp3","","","416","",""
"","","","","","audio-keyboard-response","435","780573","0.0-20.0-0.396","null","stim/audio_stimuli/burglar.mp3","null","test","stim/audio_stimuli/burglar.mp3","","","417","list",""
"","","","","","audio-keyboard-response","436","781584","0.0-20.0-0.397","null","stim/audio_stimuli/cop.mp3","null","test","stim/audio_stimuli/cop.mp3","","","418","list",""
"","","","","","audio-keyboard-response","437","782588","0.0-20.0-0.398","null","stim/audio_stimuli/rob.mp3","null","test","stim/audio_stimuli/rob.mp3","","","419","list",""
"","","","","","audio-keyboard-response","438","783604","0.0-20.0-0.399","null","stim/audio_stimuli/gun.mp3","null","test","stim/audio_stimuli/gun.mp3","","","420","list",""
"","","","","","audio-keyboard-response","439","784612","0.0-20.0-0.400","null","stim/audio_stimuli/crime.mp3","null","test","stim/audio_stimuli/crime.mp3","","","421","list",""
"","","","","","audio-keyboard-response","440","785623","0.0-20.0-0.401","null","stim/audio_stimuli/bandit.mp3","null","test","stim/audio_stimuli/bandit.mp3","","","422","list",""
"","","","","","audio-keyboard-response","441","787631","0.0-20.0-0.402","null","stim/audio_tones/tone_1.mp3","null","test","stim/audio_tones/tone_1.mp3","","","423","",""
"","","","","","audio-keyboard-response","442","790625","0.0-20.0-0.403","","","","test","stim/audio_stimuli/thief.mp3","false","100","424","target","70"
"","","","","","audio-keyboard-response","443","790637","0.0-20.0-0.404","null","stim/audio_instructions/silence.mp3","null","test","stim/audio_instructions/silence.mp3","","","425","",""
"","","","","","audio-keyboard-response","444","794643","0.0-20.0-0.405","null","stim/audio_tones/tone_2.mp3","null","test","stim/audio_tones/tone_2.mp3","","","426","",""
"","","","","","audio-keyboard-response","445","794656","0.0-20.0-0.406","null","stim/audio_instructions/silence.mp3","null","test","stim/audio_instructions/silence.mp3","","","427","",""
"","","","","","audio-keyboard-response","446","795659","0.0-20.0-0.407","null","stim/audio_stimuli/symbol.mp3","null","test","stim/audio_stimuli/symbol.mp3","","","428","list",""
"","","","","","audio-keyboard-response","447","796670","0.0-20.0-0.408","null","stim/audio_stimuli/anthem.mp3","null","test","stim/audio_stimuli/anthem.mp3","","","429","list",""
"","","","","","audio-keyboard-response","448","797684","0.0-20.0-0.409","null","stim/audio_stimuli/pole.mp3","null","test","stim/audio_stimuli/pole.mp3","","","430","list",""
"","","","","","audio-keyboard-response","449","798689","0.0-20.0-0.410","null","stim/audio_stimuli/raised.mp3","null","test","stim/audio_stimuli/raised.mp3","","","431","list",""
"","","","","","audio-keyboard-response","450","799706","0.0-20.0-0.411","null","stim/audio_stimuli/checkered.mp3","null","test","stim/audio_stimuli/checkered.mp3","","","432","list",""
"","","","","","audio-keyboard-response","451","800718","0.0-20.0-0.412","null","stim/audio_stimuli/sign.mp3","null","test","stim/audio_stimuli/sign.mp3","","","433","list",""
"","","","","","audio-keyboard-response","452","802727","0.0-20.0-0.413","null","stim/audio_tones/tone_1.mp3","null","test","stim/audio_tones/tone_1.mp3","","","434","",""
"","","","","","audio-keyboard-response","453","805706","0.0-20.0-0.414","","","","test","stim/audio_stimuli/trash.mp3","false","100","435","target","70"
"","","","","","audio-keyboard-response","454","805718","0.0-20.0-0.415","null","stim/audio_instructions/silence.mp3","null","test","stim/audio_instructions/silence.mp3","","","436","",""
"","","","","","audio-keyboard-response","455","809723","0.0-20.0-0.416","null","stim/audio_tones/tone_2.mp3","null","test","stim/audio_tones/tone_2.mp3","","","437","",""
"","","","","","audio-keyboard-response","456","809736","0.0-20.0-0.417","null","stim/audio_instructions/silence.mp3","null","test","stim/audio_instructions/silence.mp3","","","438","",""
"","","","","","audio-keyboard-response","457","810738","0.0-20.0-0.418","null","stim/audio_stimuli/up.mp3","null","test","stim/audio_stimuli/up.mp3","","","439","list",""
"","","","","","audio-keyboard-response","458","811752","0.0-20.0-0.419","null","stim/audio_stimuli/tower.mp3","null","test","stim/audio_stimuli/tower.mp3","","","440","list",""
"","","","","","audio-keyboard-response","459","812767","0.0-20.0-0.420","null","stim/audio_stimuli/above.mp3","null","test","stim/audio_stimuli/above.mp3","","","441","list",""
"","","","","","audio-keyboard-response","460","813779","0.0-20.0-0.421","null","stim/audio_stimuli/noon.mp3","null","test","stim/audio_stimuli/noon.mp3","","","442","list",""
"","","","","","audio-keyboard-response","461","814792","0.0-20.0-0.422","null","stim/audio_stimuli/sky.mp3","null","test","stim/audio_stimuli/sky.mp3","","","443","list",""
"","","","","","audio-keyboard-response","462","815808","0.0-20.0-0.423","null","stim/audio_stimuli/airplane.mp3","null","test","stim/audio_stimuli/airplane.mp3","","","444","list",""
"","","","","","audio-keyboard-response","463","817824","0.0-20.0-0.424","null","stim/audio_tones/tone_1.mp3","null","test","stim/audio_tones/tone_1.mp3","","","445","",""
"","","","","","audio-keyboard-response","464","820600","0.0-20.0-0.425","","","","test","stim/audio_stimuli/army.mp3","false","100","446","target","70"
"","","","","","audio-keyboard-response","465","820612","0.0-20.0-0.426","null","stim/audio_instructions/silence.mp3","null","test","stim/audio_instructions/silence.mp3","","","447","",""
"","","","","","audio-keyboard-response","466","824625","0.0-20.0-0.427","null","stim/audio_tones/tone_2.mp3","null","test","stim/audio_tones/tone_2.mp3","","","448","",""
"","","","","","audio-keyboard-response","467","824638","0.0-20.0-0.428","null","stim/audio_instructions/silence.mp3","null","test","stim/audio_instructions/silence.mp3","","","449","",""
"","","","","","audio-keyboard-response","468","825653","0.0-20.0-0.429","null","stim/audio_stimuli/awake.mp3","null","test","stim/audio_stimuli/awake.mp3","","","450","list",""
"","","","","","audio-keyboard-response","469","826668","0.0-20.0-0.430","null","stim/audio_stimuli/dream.mp3","null","test","stim/audio_stimuli/dream.mp3","","","451","list",""
"","","","","","audio-keyboard-response","470","827671","0.0-20.0-0.431","null","stim/audio_stimuli/snooze.mp3","null","test","stim/audio_stimuli/snooze.mp3","","","452","list",""
"","","","","","audio-keyboard-response","471","828682","0.0-20.0-0.432","null","stim/audio_stimuli/doze.mp3","null","test","stim/audio_stimuli/doze.mp3","","","453","list",""
"","","","","","audio-keyboard-response","472","829696","0.0-20.0-0.433","null","stim/audio_stimuli/snore.mp3","null","test","stim/audio_stimuli/snore.mp3","","","454","list",""
"","","","","","audio-keyboard-response","473","830713","0.0-20.0-0.434","null","stim/audio_stimuli/peace.mp3","null","test","stim/audio_stimuli/peace.mp3","","","455","list",""
"","","","","","audio-keyboard-response","474","832721","0.0-20.0-0.435","null","stim/audio_tones/tone_1.mp3","null","test","stim/audio_tones/tone_1.mp3","","","456","",""
"","","","","","audio-keyboard-response","475","837734","0.0-20.0-0.436","null","stim/audio_stimuli/steal.mp3","null","test","stim/audio_stimuli/steal.mp3","false","100","457","target","70"
"","","","","","audio-keyboard-response","476","837747","0.0-20.0-0.437","null","stim/audio_instructions/silence.mp3","null","test","stim/audio_instructions/silence.mp3","","","458","",""
"","","","","","audio-keyboard-response","477","841750","0.0-20.0-0.438","null","stim/audio_tones/tone_2.mp3","null","test","stim/audio_tones/tone_2.mp3","","","459","",""
"","","","","","audio-keyboard-response","478","841763","0.0-20.0-0.439","null","stim/audio_instructions/silence.mp3","null","test","stim/audio_instructions/silence.mp3","","","460","",""
"","","","","","audio-keyboard-response","479","842767","0.0-20.0-0.440","null","stim/audio_stimuli/train.mp3","null","test","stim/audio_stimuli/train.mp3","","","461","list",""
"","","","","","audio-keyboard-response","480","843779","0.0-20.0-0.441","null","stim/audio_stimuli/vehicle.mp3","null","test","stim/audio_stimuli/vehicle.mp3","","","462","list",""
"","","","","","audio-keyboard-response","481","844792","0.0-20.0-0.442","null","stim/audio_stimuli/jeep.mp3","null","test","stim/audio_stimuli/jeep.mp3","","","463","list",""
"","","","","","audio-keyboard-response","482","845805","0.0-20.0-0.443","null","stim/audio_stimuli/race.mp3","null","test","stim/audio_stimuli/race.mp3","","","464","list",""
"","","","","","audio-keyboard-response","483","846820","0.0-20.0-0.444","null","stim/audio_stimuli/garage.mp3","null","test","stim/audio_stimuli/garage.mp3","","","465","list",""
"","","","","","audio-keyboard-response","484","847837","0.0-20.0-0.445","null","stim/audio_stimuli/sedan.mp3","null","test","stim/audio_stimuli/sedan.mp3","","","466","list",""
"","","","","","audio-keyboard-response","485","849849","0.0-20.0-0.446","null","stim/audio_tones/tone_1.mp3","null","test","stim/audio_tones/tone_1.mp3","","","467","",""
"","","","","","audio-keyboard-response","486","854853","0.0-20.0-0.447","null","stim/audio_stimuli/thief.mp3","null","test","stim/audio_stimuli/thief.mp3","false","44.400000000000006","468","target","70"
"","","","","","audio-keyboard-response","487","854865","0.0-20.0-0.448","null","stim/audio_instructions/silence.mp3","null","test","stim/audio_instructions/silence.mp3","","","469","",""
"","","","","","audio-keyboard-response","488","858867","0.0-20.0-0.449","null","stim/audio_tones/tone_2.mp3","null","test","stim/audio_tones/tone_2.mp3","","","470","",""
"","","","","","audio-keyboard-response","489","858881","0.0-20.0-0.450","null","stim/audio_instructions/silence.mp3","null","test","stim/audio_instructions/silence.mp3","","","471","",""
"","","","","","audio-keyboard-response","490","859885","0.0-20.0-0.451","null","stim/audio_stimuli/crook.mp3","null","test","stim/audio_stimuli/crook.mp3","","","472","list",""
"","","","","","audio-keyboard-response","491","860901","0.0-20.0-0.452","null","stim/audio_stimuli/money.mp3","null","test","stim/audio_stimuli/money.mp3","","","473","list",""
"","","","","","audio-keyboard-response","492","861917","0.0-20.0-0.453","null","stim/audio_stimuli/bad.mp3","null","test","stim/audio_stimuli/bad.mp3","","","474","list",""
"","","","","","audio-keyboard-response","493","862933","0.0-20.0-0.454","null","stim/audio_stimuli/jail.mp3","null","test","stim/audio_stimuli/jail.mp3","","","475","list",""
"","","","","","audio-keyboard-response","494","863936","0.0-20.0-0.455","null","stim/audio_stimuli/villain.mp3","null","test","stim/audio_stimuli/villain.mp3","","","476","list",""
"","","","","","audio-keyboard-response","495","864947","0.0-20.0-0.456","null","stim/audio_stimuli/bank.mp3","null","test","stim/audio_stimuli/bank.mp3","","","477","list",""
"","","","","","audio-keyboard-response","496","866965","0.0-20.0-0.457","null","stim/audio_tones/tone_1.mp3","null","test","stim/audio_tones/tone_1.mp3","","","478","",""
"","","","","","audio-keyboard-response","497","871978","0.0-20.0-0.458","null","stim/audio_stimuli/car.mp3","null","test","stim/audio_stimuli/car.mp3","false","99.9","479","target","70"
"","","","","","audio-keyboard-response","498","871992","0.0-20.0-0.459","null","stim/audio_instructions/silence.mp3","null","test","stim/audio_instructions/silence.mp3","","","480","",""
"","","","","","audio-keyboard-response","499","875998","0.0-20.0-0.460","null","stim/audio_tones/tone_2.mp3","null","test","stim/audio_tones/tone_2.mp3","","","481","",""
"","","","","","audio-keyboard-response","500","876013","0.0-20.0-0.461","null","stim/audio_instructions/silence.mp3","null","test","stim/audio_instructions/silence.mp3","","","482","",""
"","","","","","audio-keyboard-response","501","877027","0.0-20.0-0.462","null","stim/audio_stimuli/pane.mp3","null","test","stim/audio_stimuli/pane.mp3","","","483","list",""
"","","","","","audio-keyboard-response","502","878038","0.0-20.0-0.463","null","stim/audio_stimuli/ledge.mp3","null","test","stim/audio_stimuli/ledge.mp3","","","484","list",""
"","","","","","audio-keyboard-response","503","879050","0.0-20.0-0.464","null","stim/audio_stimuli/house.mp3","null","test","stim/audio_stimuli/house.mp3","","","485","list",""
"","","","","","audio-keyboard-response","504","880065","0.0-20.0-0.465","null","stim/audio_stimuli/curtain.mp3","null","test","stim/audio_stimuli/curtain.mp3","","","486","list",""
"","","","","","audio-keyboard-response","505","881079","0.0-20.0-0.466","null","stim/audio_stimuli/view.mp3","null","test","stim/audio_stimuli/view.mp3","","","487","list",""
"","","","","","audio-keyboard-response","506","882095","0.0-20.0-0.467","null","stim/audio_stimuli/sash.mp3","null","test","stim/audio_stimuli/sash.mp3","","","488","list",""
"","","","","","audio-keyboard-response","507","884110","0.0-20.0-0.468","null","stim/audio_tones/tone_1.mp3","null","test","stim/audio_tones/tone_1.mp3","","","489","",""
"","","","","","audio-keyboard-response","508","889113","0.0-20.0-0.469","null","stim/audio_stimuli/navy.mp3","null","test","stim/audio_stimuli/navy.mp3","false","92.5","490","target","70"
"","","","","","audio-keyboard-response","509","889127","0.0-20.0-0.470","null","stim/audio_instructions/silence.mp3","null","test","stim/audio_instructions/silence.mp3","","","491","",""
"","","","","","audio-keyboard-response","510","893138","0.0-20.0-0.471","null","stim/audio_tones/tone_2.mp3","null","test","stim/audio_tones/tone_2.mp3","","","492","",""
"","","","","","audio-keyboard-response","511","893152","0.0-20.0-0.472","null","stim/audio_instructions/silence.mp3","null","test","stim/audio_instructions/silence.mp3","","","493","",""
"","","","","","audio-keyboard-response","512","894164","0.0-20.0-0.473","null","stim/audio_stimuli/unitedStates.mp3","null","test","stim/audio_stimuli/unitedStates.mp3","","","494","list",""
"","","","","","audio-keyboard-response","513","895181","0.0-20.0-0.474","null","stim/audio_stimuli/airForce.mp3","null","test","stim/audio_stimuli/airForce.mp3","","","495","list",""
"","","","","","audio-keyboard-response","514","896197","0.0-20.0-0.475","null","stim/audio_stimuli/military.mp3","null","test","stim/audio_stimuli/military.mp3","","","496","list",""
"","","","","","audio-keyboard-response","515","897214","0.0-20.0-0.476","null","stim/audio_stimuli/march.mp3","null","test","stim/audio_stimuli/march.mp3","","","497","list",""
"","","","","","audio-keyboard-response","516","898226","0.0-20.0-0.477","null","stim/audio_stimuli/captain.mp3","null","test","stim/audio_stimuli/captain.mp3","","","498","list",""
"","","","","","audio-keyboard-response","517","899238","0.0-20.0-0.478","null","stim/audio_stimuli/uniform.mp3","null","test","stim/audio_stimuli/uniform.mp3","","","499","list",""
"","","","","","audio-keyboard-response","518","901242","0.0-20.0-0.479","null","stim/audio_tones/tone_1.mp3","null","test","stim/audio_tones/tone_1.mp3","","","500","",""
"","","","","","audio-keyboard-response","519","904104","0.0-20.0-0.480","","","","test","stim/audio_stimuli/high.mp3","false","100","501","target","70"
"","","","","","audio-keyboard-response","520","904116","0.0-20.0-0.481","null","stim/audio_instructions/silence.mp3","null","test","stim/audio_instructions/silence.mp3","","","502","",""
"","","","","","audio-keyboard-response","521","908129","0.0-20.0-0.482","null","stim/audio_tones/tone_2.mp3","null","test","stim/audio_tones/tone_2.mp3","","","503","",""
"","","","","","audio-keyboard-response","522","908143","0.0-20.0-0.483","null","stim/audio_instructions/silence.mp3","null","test","stim/audio_instructions/silence.mp3","","","504","",""
"","","","","","audio-keyboard-response","523","909155","0.0-20.0-0.484","null","stim/audio_stimuli/uncle.mp3","null","test","stim/audio_stimuli/uncle.mp3","","","505","list",""
"","","","","","audio-keyboard-response","524","910170","0.0-20.0-0.485","null","stim/audio_stimuli/mouse.mp3","null","test","stim/audio_stimuli/mouse.mp3","","","506","list",""
"","","","","","audio-keyboard-response","525","911186","0.0-20.0-0.486","null","stim/audio_stimuli/father.mp3","null","test","stim/audio_stimuli/father.mp3","","","507","list",""
"","","","","","audio-keyboard-response","526","912189","0.0-20.0-0.487","null","stim/audio_stimuli/friend.mp3","null","test","stim/audio_stimuli/friend.mp3","","","508","list",""
"","","","","","audio-keyboard-response","527","913200","0.0-20.0-0.488","null","stim/audio_stimuli/person.mp3","null","test","stim/audio_stimuli/person.mp3","","","509","list",""
"","","","","","audio-keyboard-response","528","914213","0.0-20.0-0.489","null","stim/audio_stimuli/muscle.mp3","null","test","stim/audio_stimuli/muscle.mp3","","","510","list",""
"","","","","","audio-keyboard-response","529","916223","0.0-20.0-0.490","null","stim/audio_tones/tone_1.mp3","null","test","stim/audio_tones/tone_1.mp3","","","511","",""
"","","","","","audio-keyboard-response","530","919148","0.0-20.0-0.491","","","","test","stim/audio_stimuli/garbage.mp3","false","100","512","target","70"
"","","","","","audio-keyboard-response","531","919160","0.0-20.0-0.492","null","stim/audio_instructions/silence.mp3","null","test","stim/audio_instructions/silence.mp3","","","513","",""
"","","","","","audio-keyboard-response","532","923168","0.0-20.0-0.493","null","stim/audio_tones/tone_2.mp3","null","test","stim/audio_tones/tone_2.mp3","","","514","",""
"","","","","","audio-keyboard-response","533","923181","0.0-20.0-0.494","null","stim/audio_instructions/silence.mp3","null","test","stim/audio_instructions/silence.mp3","","","515","",""
"","","","","","audio-keyboard-response","534","924194","0.0-20.0-0.495","null","stim/audio_stimuli/tie.mp3","null","test","stim/audio_stimuli/tie.mp3","","","516","list",""
"","","","","","audio-keyboard-response","535","925204","0.0-20.0-0.496","null","stim/audio_stimuli/shorts.mp3","null","test","stim/audio_stimuli/shorts.mp3","","","517","list",""
"","","","","","audio-keyboard-response","536","926213","0.0-20.0-0.497","null","stim/audio_stimuli/polo.mp3","null","test","stim/audio_stimuli/polo.mp3","","","518","list",""
"","","","","","audio-keyboard-response","537","927227","0.0-20.0-0.498","null","stim/audio_stimuli/blouse.mp3","null","test","stim/audio_stimuli/blouse.mp3","false","0","519","target","74"
"","","","","","audio-keyboard-response","538","928242","0.0-20.0-0.499","null","stim/audio_stimuli/jersey.mp3","null","test","stim/audio_stimuli/jersey.mp3","","","520","list",""
"","","","","","audio-keyboard-response","539","929247","0.0-20.0-0.500","null","stim/audio_stimuli/linen.mp3","null","test","stim/audio_stimuli/linen.mp3","","","521","list",""
"","","","","","audio-keyboard-response","540","931261","0.0-20.0-0.501","null","stim/audio_tones/tone_1.mp3","null","test","stim/audio_tones/tone_1.mp3","","","522","",""
"","","","","","audio-keyboard-response","541","934382","0.0-20.0-0.502","","","","test","stim/audio_stimuli/blouse.mp3","false","100","523","target","74"
"","","","","","audio-keyboard-response","542","934394","0.0-20.0-0.503","null","stim/audio_instructions/silence.mp3","null","test","stim/audio_instructions/silence.mp3","","","524","",""
"","","","","","audio-keyboard-response","543","938403","0.0-20.0-0.504","null","stim/audio_tones/tone_2.mp3","null","test","stim/audio_tones/tone_2.mp3","","","525","",""
"","","","","","audio-keyboard-response","544","938417","0.0-20.0-0.505","null","stim/audio_instructions/silence.mp3","null","test","stim/audio_instructions/silence.mp3","","","526","",""
"","","","","","audio-keyboard-response","545","939429","0.0-20.0-0.506","null","stim/audio_stimuli/pants.mp3","null","test","stim/audio_stimuli/pants.mp3","","","527","list",""
"","","","","","audio-keyboard-response","546","940440","0.0-20.0-0.507","null","stim/audio_stimuli/button.mp3","null","test","stim/audio_stimuli/button.mp3","","","528","list",""
"","","","","","audio-keyboard-response","547","941450","0.0-20.0-0.508","null","stim/audio_stimuli/iron.mp3","null","test","stim/audio_stimuli/iron.mp3","","","529","list",""
"","","","","","audio-keyboard-response","548","942460","0.0-20.0-0.509","null","stim/audio_stimuli/collar.mp3","null","test","stim/audio_stimuli/collar.mp3","","","530","list",""
"","","","","","audio-keyboard-response","549","943472","0.0-20.0-0.510","null","stim/audio_stimuli/pocket.mp3","null","test","stim/audio_stimuli/pocket.mp3","","","531","list",""
"","","","","","audio-keyboard-response","550","944475","0.0-20.0-0.511","null","stim/audio_stimuli/belt.mp3","null","test","stim/audio_stimuli/belt.mp3","","","532","list",""
"","","","","","audio-keyboard-response","551","946488","0.0-20.0-0.512","null","stim/audio_tones/tone_1.mp3","null","test","stim/audio_tones/tone_1.mp3","","","533","",""
"","","","","","audio-keyboard-response","552","951495","0.0-20.0-0.513","null","stim/audio_stimuli/web.mp3","null","test","stim/audio_stimuli/web.mp3","false","100","534","target","70"
"","","","","","audio-keyboard-response","553","951509","0.0-20.0-0.514","null","stim/audio_instructions/silence.mp3","null","test","stim/audio_instructions/silence.mp3","","","535","",""
"","","","","","audio-keyboard-response","554","955511","0.0-20.0-0.515","null","stim/audio_tones/tone_2.mp3","null","test","stim/audio_tones/tone_2.mp3","","","536","",""
"","","","","","audio-keyboard-response","555","955524","0.0-20.0-0.516","null","stim/audio_instructions/silence.mp3","null","test","stim/audio_instructions/silence.mp3","","","537","",""
"","","","","","audio-keyboard-response","556","956534","0.0-20.0-0.517","null","stim/audio_stimuli/tea.mp3","null","test","stim/audio_stimuli/tea.mp3","","","538","list",""
"","","","","","audio-keyboard-response","557","957536","0.0-20.0-0.518","null","stim/audio_stimuli/coaster.mp3","null","test","stim/audio_stimuli/coaster.mp3","","","539","list",""
