"success","timeout","failed_images","failed_audio","failed_video","trial_type","trial_index","time_elapsed","internal_node_id","rt","stimulus","response","test_part","stim","confidence","accuracy_experiment","index","word_position","correct_response","condition"
"true","false","[]","[]","[]","preload","0","4323","0.0-0.0","","","","","","","","","","",""
"","","","","","html-keyboard-response","1","5312","0.0-1.0","988","<p> This experiment is presented in an auditory format</p><p>Please make sure that you increase the volume on your computer.</p><p>If you are blind and use a screenreader (e.g., JAWS, NVDA, VoiceOver), we highly recommend that you turn it off before starting the experiment.</p><p> <i> Press the spacebar to start hearing the instructions. </i> </p>"," ","","","","","","","",""
"","","","","","audio-keyboard-response","2","20956","0.0-2.0","null","stim/audio_instructions/DRM_instructions_0.mp3","null","","","","","","","",""
"","","","","","html-keyboard-response","3","26707","0.0-3.0","5746","stim/audio_instructions/silence.mp3"," ","","","","","","","",""
"","","","","","audio-keyboard-response","4","44739","0.0-4.0","null","stim/audio_instructions/drm_instructions_1.mp3","null","","","","","","","",""
"","","","","","audio-keyboard-response","5","59253","0.0-5.0","14512","stim/audio_instructions/silence.mp3"," ","","","","","","","",""
"","","","","","audio-keyboard-response","6","63709","0.0-6.0","null","stim/audio_tones/tone_1.mp3","null","","","","","","","",""
"","","","","","audio-keyboard-response","7","84293","0.0-7.0","null","stim/audio_instructions/drm_instructions_after_short_tone.mp3","null","","","","","","","",""
"","","","","","audio-keyboard-response","8","88623","0.0-8.0","4325","stim/audio_instructions/silence.mp3","j","","","","","","","",""
"","","","","","audio-keyboard-response","9","118846","0.0-9.0","5643","stim/audio_instructions/drm_instructions_2.mp3"," ","","","","","","","",""
"","","","","","audio-keyboard-response","10","156309","0.0-10.0","","","","","","","","","","",""
"","","","","","audio-keyboard-response","11","171300","0.0-11.0","7429","stim/audio_instructions/drm_instructions_3.mp3"," ","","","","","","","",""
"","","","","","html-keyboard-response","12","172090","0.0-12.0","787","stim/audio_instructions/silence.mp3"," ","","","","","","","",""
"","","","","","audio-keyboard-response","13","176547","0.0-13.0","null","stim/audio_tones/tone_2.mp3","null","","","","","","","",""
"","","","","","audio-keyboard-response","14","185417","0.0-14.0","7152","stim/audio_instructions/drm_instructions_5.mp3"," ","","","","","","","",""
"","","","","","html-keyboard-response","15","185921","0.0-15.0","504","stim/audio_instructions/silence.mp3"," ","","","","","","","",""
"","","","","","audio-keyboard-response","16","188926","0.0-16.0-0.0","null","stim/audio_tones/tone_2.mp3","","practice","stim/audio_tones/tone_2.mp3","","","1","","",""
"","","","","","audio-keyboard-response","17","189528","0.0-16.0-0.1","null","stim/audio_instructions/silence.mp3","","practice","stim/audio_instructions/silence.mp3","","","2","","",""
"","","","","","audio-keyboard-response","18","190531","0.0-16.0-0.2","null","stim/audio_practice/atom.mp3","","practice","stim/audio_practice/atom.mp3","","","3","list","",""
"","","","","","audio-keyboard-response","19","191534","0.0-16.0-0.3","null","stim/audio_practice/molecule.mp3","","practice","stim/audio_practice/molecule.mp3","","","4","list","",""
"","","","","","audio-keyboard-response","20","192536","0.0-16.0-0.4","null","stim/audio_practice/bond.mp3","","practice","stim/audio_practice/bond.mp3","","","5","list","",""
"","","","","","audio-keyboard-response","21","193539","0.0-16.0-0.5","null","stim/audio_practice/gas.mp3","","practice","stim/audio_practice/gas.mp3","","","6","list","",""
"","","","","","audio-keyboard-response","22","194541","0.0-16.0-0.6","null","stim/audio_practice/electron.mp3","","practice","stim/audio_practice/electron.mp3","","","7","list","",""
"","","","","","audio-keyboard-response","23","195543","0.0-16.0-0.7","null","stim/audio_practice/oxygen.mp3","","practice","stim/audio_practice/oxygen.mp3","","","8","list","",""
"","","","","","audio-keyboard-response","24","196547","0.0-16.0-0.8","null","stim/audio_tones/tone_1.mp3","","practice","stim/audio_tones/tone_1.mp3","","","9","responsePrompt","",""
"","","","","","audio-keyboard-response","25","201618","0.0-16.0-0.9","null","stim/audio_practice/chemistry.mp3","74","practice","stim/audio_practice/chemistry.mp3","0","correct","10","target","74",""
"","","","","","audio-keyboard-response","26","204622","0.0-16.0-0.10","null","stim/audio_tones/tone_2.mp3","","practice","stim/audio_tones/tone_2.mp3","","","11","","",""
"","","","","","audio-keyboard-response","27","205225","0.0-16.0-0.11","null","stim/audio_instructions/silence.mp3","","practice","stim/audio_instructions/silence.mp3","","","12","","",""
"","","","","","audio-keyboard-response","28","206228","0.0-16.0-0.12","null","stim/audio_practice/shark.mp3","","practice","stim/audio_practice/shark.mp3","","","13","list","",""
"","","","","","audio-keyboard-response","29","207230","0.0-16.0-0.13","null","stim/audio_practice/island.mp3","","practice","stim/audio_practice/island.mp3","","","14","list","",""
"","","","","","audio-keyboard-response","30","208233","0.0-16.0-0.14","null","stim/audio_practice/waves.mp3","","practice","stim/audio_practice/waves.mp3","","","15","list","",""
"","","","","","audio-keyboard-response","31","209236","0.0-16.0-0.15","null","stim/audio_practice/shrimp.mp3","","practice","stim/audio_practice/shrimp.mp3","","","16","list","",""
"","","","","","audio-keyboard-response","32","210238","0.0-16.0-0.16","null","stim/audio_practice/ocean.mp3","","practice","stim/audio_practice/ocean.mp3","","","17","list","",""
"","","","","","audio-keyboard-response","33","211241","0.0-16.0-0.17","null","stim/audio_practice/whale.mp3","","practice","stim/audio_practice/whale.mp3","","","18","list","",""
"","","","","","audio-keyboard-response","34","212242","0.0-16.0-0.18","null","stim/audio_tones/tone_1.mp3","","practice","stim/audio_tones/tone_1.mp3","","","19","responsePrompt","",""
"","","","","","audio-keyboard-response","35","217247","0.0-16.0-0.19","null","stim/audio_practice/ocean.mp3","74","practice","stim/audio_practice/ocean.mp3","48.1","correct","20","target","74",""
"","","","","","audio-keyboard-response","36","233210","0.0-17.0","null","stim/audio_instructions/drm_instructions_6.mp3","null","","","","","","","",""
"","","","","","audio-keyboard-response","37","249176","0.0-18.0","null","stim/audio_instructions/silence.mp3","null","","","","","","","",""
"","","","","","html-keyboard-response","38","253117","0.0-19.0","3938","stim/audio_instructions/silence.mp3"," ","","","","","","","",""
"","","","","","audio-keyboard-response","39","254120","0.0-20.0-0.0","null","stim/audio_stimuli/leak.mp3","","test","stim/audio_stimuli/leak.mp3","","","21","list","","congruentPrototype"
"","","","","","audio-keyboard-response","40","255122","0.0-20.0-0.1","null","stim/audio_stimuli/felt.mp3","","test","stim/audio_stimuli/felt.mp3","","","22","list","","congruentPrototype"
"","","","","","audio-keyboard-response","41","256124","0.0-20.0-0.2","null","stim/audio_stimuli/scribble.mp3","","test","stim/audio_stimuli/scribble.mp3","","","23","list","","congruentPrototype"
"","","","","","audio-keyboard-response","42","257127","0.0-20.0-0.3","null","stim/audio_stimuli/cross.mp3","","test","stim/audio_stimuli/cross.mp3","","","24","list","","congruentPrototype"
"","","","","","audio-keyboard-response","43","258128","0.0-20.0-0.4","null","stim/audio_stimuli/marker.mp3","","test","stim/audio_stimuli/marker.mp3","","","25","list","","congruentPrototype"
"","","","","","audio-keyboard-response","44","259130","0.0-20.0-0.5","null","stim/audio_stimuli/cap.mp3","","test","stim/audio_stimuli/cap.mp3","","","26","list","","congruentPrototype"
"","","","","","audio-keyboard-response","45","261133","0.0-20.0-0.6","null","stim/audio_tones/tone_1.mp3","","test","stim/audio_tones/tone_1.mp3","","","27","","","congruentPrototype"
"","","","","","audio-keyboard-response","46","266137","0.0-20.0-0.7","null","stim/audio_stimuli/pen.mp3","74","test","stim/audio_stimuli/pen.mp3","","","28","target","70","congruentPrototype"
"","","","","","audio-keyboard-response","47","266170","0.0-20.0-0.8","null","stim/audio_instructions/silence.mp3","","test","stim/audio_instructions/silence.mp3","","","29","","","congruentPrototype"
"","","","","","audio-keyboard-response","48","270173","0.0-20.0-0.9","null","stim/audio_tones/tone_2.mp3","","test","stim/audio_tones/tone_2.mp3","","","30","","","congruentPrototype"
"","","","","","audio-keyboard-response","49","270188","0.0-20.0-0.10","null","stim/audio_instructions/silence.mp3","","test","stim/audio_instructions/silence.mp3","","","31","","","congruentPrototype"
"","","","","","audio-keyboard-response","50","271190","0.0-20.0-0.11","null","stim/audio_stimuli/stop.mp3","","test","stim/audio_stimuli/stop.mp3","","","32","list","","incongruentHighestAssociate"
"","","","","","audio-keyboard-response","51","272194","0.0-20.0-0.12","null","stim/audio_stimuli/snail.mp3","","test","stim/audio_stimuli/snail.mp3","","","33","list","","incongruentHighestAssociate"
"","","","","","audio-keyboard-response","52","273197","0.0-20.0-0.13","null","stim/audio_stimuli/delay.mp3","","test","stim/audio_stimuli/delay.mp3","","","34","list","","incongruentHighestAssociate"
"","","","","","audio-keyboard-response","53","274199","0.0-20.0-0.14","null","stim/audio_stimuli/turtle.mp3","","test","stim/audio_stimuli/turtle.mp3","","","35","list","","incongruentHighestAssociate"
"","","","","","audio-keyboard-response","54","275201","0.0-20.0-0.15","null","stim/audio_stimuli/speed.mp3","","test","stim/audio_stimuli/speed.mp3","","","36","list","","incongruentHighestAssociate"
"","","","","","audio-keyboard-response","55","276203","0.0-20.0-0.16","null","stim/audio_stimuli/sluggish.mp3","","test","stim/audio_stimuli/sluggish.mp3","","","37","list","","incongruentHighestAssociate"
"","","","","","audio-keyboard-response","56","278205","0.0-20.0-0.17","null","stim/audio_tones/tone_1.mp3","","test","stim/audio_tones/tone_1.mp3","","","38","","","incongruentHighestAssociate"
"","","","","","audio-keyboard-response","57","283209","0.0-20.0-0.18","null","stim/audio_stimuli/pencil.mp3","74","test","stim/audio_stimuli/banner.mp3","","","39","target","70","incongruentHighestAssociate"
"","","","","","audio-keyboard-response","58","283246","0.0-20.0-0.19","null","stim/audio_instructions/silence.mp3","","test","stim/audio_instructions/silence.mp3","","","40","","","incongruentHighestAssociate"
"","","","","","audio-keyboard-response","59","287249","0.0-20.0-0.20","null","stim/audio_tones/tone_2.mp3","","test","stim/audio_tones/tone_2.mp3","","","41","","","incongruentHighestAssociate"
"","","","","","audio-keyboard-response","60","287260","0.0-20.0-0.21","null","stim/audio_instructions/silence.mp3","","test","stim/audio_instructions/silence.mp3","","","42","","","incongruentHighestAssociate"
"","","","","","audio-keyboard-response","61","288261","0.0-20.0-0.22","null","stim/audio_stimuli/capital.mp3","","test","stim/audio_stimuli/capital.mp3","","","43","list","","congruentPrototype"
"","","","","","audio-keyboard-response","62","289263","0.0-20.0-0.23","null","stim/audio_stimuli/subway.mp3","","test","stim/audio_stimuli/subway.mp3","","","44","list","","congruentPrototype"
"","","","","","audio-keyboard-response","63","290264","0.0-20.0-0.24","null","stim/audio_stimuli/newYork.mp3","","test","stim/audio_stimuli/newYork.mp3","","","45","list","","congruentPrototype"
"","","","","","audio-keyboard-response","64","291267","0.0-20.0-0.25","null","stim/audio_stimuli/metropolis.mp3","","test","stim/audio_stimuli/metropolis.mp3","","","46","list","","congruentPrototype"
"","","","","","audio-keyboard-response","65","292269","0.0-20.0-0.26","null","stim/audio_stimuli/chicago.mp3","","test","stim/audio_stimuli/chicago.mp3","","","47","list","","congruentPrototype"
"","","","","","audio-keyboard-response","66","293272","0.0-20.0-0.27","null","stim/audio_stimuli/county.mp3","","test","stim/audio_stimuli/county.mp3","","","48","list","","congruentPrototype"
"","","","","","audio-keyboard-response","67","295274","0.0-20.0-0.28","null","stim/audio_tones/tone_1.mp3","","test","stim/audio_tones/tone_1.mp3","","","49","","","congruentPrototype"
"","","","","","audio-keyboard-response","68","300278","0.0-20.0-0.29","null","stim/audio_stimuli/city.mp3","70","test","stim/audio_stimuli/city.mp3","81.4","correct","50","target","70","congruentPrototype"
"","","","","","audio-keyboard-response","69","300309","0.0-20.0-0.30","null","stim/audio_instructions/silence.mp3","","test","stim/audio_instructions/silence.mp3","","","51","","","congruentPrototype"
"","","","","","audio-keyboard-response","70","304310","0.0-20.0-0.31","null","stim/audio_tones/tone_2.mp3","","test","stim/audio_tones/tone_2.mp3","","","52","","","congruentPrototype"
"","","","","","audio-keyboard-response","71","304321","0.0-20.0-0.32","null","stim/audio_instructions/silence.mp3","","test","stim/audio_instructions/silence.mp3","","","53","","","congruentPrototype"
"","","","","","audio-keyboard-response","72","305323","0.0-20.0-0.33","null","stim/audio_stimuli/fountain.mp3","","test","stim/audio_stimuli/fountain.mp3","","","54","list","","incongruentPrototype"
"","","","","","audio-keyboard-response","73","306324","0.0-20.0-0.34","null","stim/audio_stimuli/quill.mp3","","test","stim/audio_stimuli/quill.mp3","","","55","list","","incongruentPrototype"
"","","","","","audio-keyboard-response","74","307326","0.0-20.0-0.35","null","stim/audio_stimuli/bic.mp3","","test","stim/audio_stimuli/bic.mp3","","","56","list","","incongruentPrototype"
"","","","","","audio-keyboard-response","75","308327","0.0-20.0-0.36","null","stim/audio_stimuli/crayon.mp3","","test","stim/audio_stimuli/crayon.mp3","","","57","list","","incongruentPrototype"
"","","","","","audio-keyboard-response","76","309329","0.0-20.0-0.37","null","stim/audio_stimuli/tip.mp3","","test","stim/audio_stimuli/tip.mp3","","","58","list","","incongruentPrototype"
"","","","","","audio-keyboard-response","77","310332","0.0-20.0-0.38","null","stim/audio_stimuli/red.mp3","","test","stim/audio_stimuli/red.mp3","","","59","list","","incongruentPrototype"
"","","","","","audio-keyboard-response","78","312334","0.0-20.0-0.39","null","stim/audio_tones/tone_1.mp3","","test","stim/audio_tones/tone_1.mp3","","","60","","","incongruentPrototype"
"","","","","","audio-keyboard-response","79","317337","0.0-20.0-0.40","null","stim/audio_stimuli/king.mp3","74","test","stim/audio_stimuli/king.mp3","","","61","target","70","incongruentPrototype"
"","","","","","audio-keyboard-response","80","317349","0.0-20.0-0.41","null","stim/audio_instructions/silence.mp3","","test","stim/audio_instructions/silence.mp3","","","62","","","incongruentPrototype"
"","","","","","audio-keyboard-response","81","321350","0.0-20.0-0.42","null","stim/audio_tones/tone_2.mp3","","test","stim/audio_tones/tone_2.mp3","","","63","","","incongruentPrototype"
"","","","","","audio-keyboard-response","82","321362","0.0-20.0-0.43","null","stim/audio_instructions/silence.mp3","","test","stim/audio_instructions/silence.mp3","","","64","","","incongruentPrototype"
"","","","","","audio-keyboard-response","83","322364","0.0-20.0-0.44","null","stim/audio_stimuli/state.mp3","","test","stim/audio_stimuli/state.mp3","","","65","list","","incongruentPrototype"
"","","","","","audio-keyboard-response","84","323364","0.0-20.0-0.45","null","stim/audio_stimuli/streets.mp3","","test","stim/audio_stimuli/streets.mp3","","","66","list","","incongruentPrototype"
"","","","","","audio-keyboard-response","85","324366","0.0-20.0-0.46","null","stim/audio_stimuli/country.mp3","","test","stim/audio_stimuli/country.mp3","","","67","list","","incongruentPrototype"
"","","","","","audio-keyboard-response","86","325367","0.0-20.0-0.47","null","stim/audio_stimuli/village.mp3","","test","stim/audio_stimuli/village.mp3","","","68","list","","incongruentPrototype"
"","","","","","audio-keyboard-response","87","326368","0.0-20.0-0.48","null","stim/audio_stimuli/big.mp3","","test","stim/audio_stimuli/big.mp3","","","69","list","","incongruentPrototype"
"","","","","","audio-keyboard-response","88","327370","0.0-20.0-0.49","null","stim/audio_stimuli/suburb.mp3","","test","stim/audio_stimuli/suburb.mp3","","","70","list","","incongruentPrototype"
"","","","","","audio-keyboard-response","89","329372","0.0-20.0-0.50","null","stim/audio_tones/tone_1.mp3","","test","stim/audio_tones/tone_1.mp3","","","71","","","incongruentPrototype"
"","","","","","audio-keyboard-response","90","334374","0.0-20.0-0.51","null","stim/audio_stimuli/bread.mp3","70","test","stim/audio_stimuli/bread.mp3","22.2","correct","72","target","70","incongruentPrototype"
"","","","","","audio-keyboard-response","91","334386","0.0-20.0-0.52","null","stim/audio_instructions/silence.mp3","","test","stim/audio_instructions/silence.mp3","","","73","","","incongruentPrototype"
"","","","","","audio-keyboard-response","92","338388","0.0-20.0-0.53","null","stim/audio_tones/tone_2.mp3","","test","stim/audio_tones/tone_2.mp3","","","74","","","incongruentPrototype"
"","","","","","audio-keyboard-response","93","338400","0.0-20.0-0.54","null","stim/audio_instructions/silence.mp3","","test","stim/audio_instructions/silence.mp3","","","75","","","incongruentPrototype"
"","","","","","audio-keyboard-response","94","339401","0.0-20.0-0.55","null","stim/audio_stimuli/stars.mp3","","test","stim/audio_stimuli/stars.mp3","","","76","list","","congruentPrototype"
"","","","","","audio-keyboard-response","95","340403","0.0-20.0-0.56","null","stim/audio_stimuli/stripes.mp3","","test","stim/audio_stimuli/stripes.mp3","","","77","list","","congruentPrototype"
"","","","","","audio-keyboard-response","96","341404","0.0-20.0-0.57","null","stim/audio_stimuli/wave.mp3","","test","stim/audio_stimuli/wave.mp3","","","78","list","","congruentPrototype"
"","","","","","audio-keyboard-response","97","342405","0.0-20.0-0.58","null","stim/audio_stimuli/national.mp3","","test","stim/audio_stimuli/national.mp3","","","79","list","","congruentPrototype"
"","","","","","audio-keyboard-response","98","343406","0.0-20.0-0.59","null","stim/audio_stimuli/emblem.mp3","","test","stim/audio_stimuli/emblem.mp3","","","80","list","","congruentPrototype"
"","","","","","audio-keyboard-response","99","344407","0.0-20.0-0.60","null","stim/audio_stimuli/freedom.mp3","","test","stim/audio_stimuli/freedom.mp3","","","81","list","","congruentPrototype"
"","","","","","audio-keyboard-response","100","346410","0.0-20.0-0.61","null","stim/audio_tones/tone_1.mp3","","test","stim/audio_tones/tone_1.mp3","","","82","","","congruentPrototype"
"","","","","","audio-keyboard-response","101","351414","0.0-20.0-0.62","null","stim/audio_stimuli/flag.mp3","70","test","stim/audio_stimuli/flag.mp3","48.1","correct","83","target","70","congruentPrototype"
"","","","","","audio-keyboard-response","102","351426","0.0-20.0-0.63","null","stim/audio_instructions/silence.mp3","","test","stim/audio_instructions/silence.mp3","","","84","","","congruentPrototype"
"","","","","","audio-keyboard-response","103","355428","0.0-20.0-0.64","null","stim/audio_tones/tone_2.mp3","","test","stim/audio_tones/tone_2.mp3","","","85","","","congruentPrototype"
"","","","","","audio-keyboard-response","104","355440","0.0-20.0-0.65","null","stim/audio_instructions/silence.mp3","","test","stim/audio_instructions/silence.mp3","","","86","","","congruentPrototype"
"","","","","","audio-keyboard-response","105","356441","0.0-20.0-0.66","null","stim/audio_stimuli/symbol.mp3","","test","stim/audio_stimuli/symbol.mp3","","","87","list","","incongruentPrototype"
"","","","","","audio-keyboard-response","106","357443","0.0-20.0-0.67","null","stim/audio_stimuli/anthem.mp3","","test","stim/audio_stimuli/anthem.mp3","","","88","list","","incongruentPrototype"
"","","","","","audio-keyboard-response","107","358446","0.0-20.0-0.68","null","stim/audio_stimuli/pole.mp3","","test","stim/audio_stimuli/pole.mp3","","","89","list","","incongruentPrototype"
"","","","","","audio-keyboard-response","108","359447","0.0-20.0-0.69","null","stim/audio_stimuli/raised.mp3","","test","stim/audio_stimuli/raised.mp3","","","90","list","","incongruentPrototype"
"","","","","","audio-keyboard-response","109","360449","0.0-20.0-0.70","null","stim/audio_stimuli/checkered.mp3","","test","stim/audio_stimuli/checkered.mp3","","","91","list","","incongruentPrototype"
"","","","","","audio-keyboard-response","110","361450","0.0-20.0-0.71","null","stim/audio_stimuli/sign.mp3","","test","stim/audio_stimuli/sign.mp3","","","92","list","","incongruentPrototype"
"","","","","","audio-keyboard-response","111","363453","0.0-20.0-0.72","null","stim/audio_tones/tone_1.mp3","","test","stim/audio_tones/tone_1.mp3","","","93","","","incongruentPrototype"
"","","","","","audio-keyboard-response","112","368458","0.0-20.0-0.73","null","stim/audio_stimuli/soft.mp3","74","test","stim/audio_stimuli/soft.mp3","","","94","target","70","incongruentPrototype"
"","","","","","audio-keyboard-response","113","368490","0.0-20.0-0.74","null","stim/audio_instructions/silence.mp3","","test","stim/audio_instructions/silence.mp3","","","95","","","incongruentPrototype"
"","","","","","audio-keyboard-response","114","372491","0.0-20.0-0.75","null","stim/audio_tones/tone_2.mp3","","test","stim/audio_tones/tone_2.mp3","","","96","","","incongruentPrototype"
"","","","","","audio-keyboard-response","115","372503","0.0-20.0-0.76","null","stim/audio_instructions/silence.mp3","","test","stim/audio_instructions/silence.mp3","","","97","","","incongruentPrototype"
"","","","","","audio-keyboard-response","116","373504","0.0-20.0-0.77","null","stim/audio_stimuli/listless.mp3","","test","stim/audio_stimuli/listless.mp3","","","98","list","","congruentHighestAssociate_2"
"","","","","","audio-keyboard-response","117","374505","0.0-20.0-0.78","null","stim/audio_stimuli/fast.mp3","","test","stim/audio_stimuli/fast.mp3","","","99","list","","congruentHighestAssociate_2"
"","","","","","audio-keyboard-response","118","375507","0.0-20.0-0.79","null","stim/audio_stimuli/traffic.mp3","","test","stim/audio_stimuli/traffic.mp3","","","100","list","","congruentHighestAssociate_2"
"","","","","","audio-keyboard-response","119","376510","0.0-20.0-0.80","null","stim/audio_stimuli/hesitant.mp3","","test","stim/audio_stimuli/hesitant.mp3","","","101","list","","congruentHighestAssociate_2"
"","","","","","audio-keyboard-response","120","377514","0.0-20.0-0.81","null","stim/audio_stimuli/quick.mp3","","test","stim/audio_stimuli/quick.mp3","","","102","list","","congruentHighestAssociate_2"
"","","","","","audio-keyboard-response","121","378518","0.0-20.0-0.82","null","stim/audio_stimuli/wait.mp3","","test","stim/audio_stimuli/wait.mp3","","","103","list","","congruentHighestAssociate_2"
"","","","","","audio-keyboard-response","122","380520","0.0-20.0-0.83","null","stim/audio_tones/tone_1.mp3","","test","stim/audio_tones/tone_1.mp3","","","104","","","congruentHighestAssociate_2"
"","","","","","audio-keyboard-response","123","385523","0.0-20.0-0.84","null","stim/audio_stimuli/fast.mp3","70","test","stim/audio_stimuli/fast.mp3","","","105","target","74","congruentHighestAssociate_2"
"","","","","","audio-keyboard-response","124","385557","0.0-20.0-0.85","null","stim/audio_instructions/silence.mp3","","test","stim/audio_instructions/silence.mp3","","","106","","","congruentHighestAssociate_2"
"","","","","","audio-keyboard-response","125","389559","0.0-20.0-0.86","null","stim/audio_tones/tone_2.mp3","","test","stim/audio_tones/tone_2.mp3","","","107","","","congruentHighestAssociate_2"
"","","","","","audio-keyboard-response","126","389570","0.0-20.0-0.87","null","stim/audio_instructions/silence.mp3","","test","stim/audio_instructions/silence.mp3","","","108","","","congruentHighestAssociate_2"
"","","","","","audio-keyboard-response","127","390571","0.0-20.0-0.88","null","stim/audio_stimuli/summit.mp3","","test","stim/audio_stimuli/summit.mp3","","","109","list","","congruentHighestAssociate_2"
"","","","","","audio-keyboard-response","128","391573","0.0-20.0-0.89","null","stim/audio_stimuli/hill.mp3","70","test","stim/audio_stimuli/hill.mp3","","","110","target","74","congruentHighestAssociate_2"
"","","","","","audio-keyboard-response","129","392575","0.0-20.0-0.90","null","stim/audio_stimuli/plain.mp3","","test","stim/audio_stimuli/plain.mp3","","","111","list","","congruentHighestAssociate_2"
"","","","","","audio-keyboard-response","130","393577","0.0-20.0-0.91","null","stim/audio_stimuli/goat.mp3","","test","stim/audio_stimuli/goat.mp3","","","112","list","","congruentHighestAssociate_2"
"","","","","","audio-keyboard-response","131","394580","0.0-20.0-0.92","null","stim/audio_stimuli/climber.mp3","","test","stim/audio_stimuli/climber.mp3","","","113","list","","congruentHighestAssociate_2"
"","","","","","audio-keyboard-response","132","395582","0.0-20.0-0.93","null","stim/audio_stimuli/steep.mp3","","test","stim/audio_stimuli/steep.mp3","","","114","list","","congruentHighestAssociate_2"
"","","","","","audio-keyboard-response","133","397584","0.0-20.0-0.94","null","stim/audio_tones/tone_1.mp3","","test","stim/audio_tones/tone_1.mp3","","","115","","","congruentHighestAssociate_2"
"","","","","","audio-keyboard-response","134","402587","0.0-20.0-0.95","null","stim/audio_stimuli/hill.mp3","70","test","stim/audio_stimuli/hill.mp3","","","116","target","74","congruentHighestAssociate_2"
"","","","","","audio-keyboard-response","135","402599","0.0-20.0-0.96","null","stim/audio_instructions/silence.mp3","","test","stim/audio_instructions/silence.mp3","","","117","","","congruentHighestAssociate_2"
"","","","","","audio-keyboard-response","136","406600","0.0-20.0-0.97","null","stim/audio_tones/tone_2.mp3","","test","stim/audio_tones/tone_2.mp3","","","118","","","congruentHighestAssociate_2"
"","","","","","audio-keyboard-response","137","406612","0.0-20.0-0.98","null","stim/audio_instructions/silence.mp3","","test","stim/audio_instructions/silence.mp3","","","119","","","congruentHighestAssociate_2"
"","","","","","audio-keyboard-response","138","407613","0.0-20.0-0.99","null","stim/audio_stimuli/billows.mp3","","test","stim/audio_stimuli/billows.mp3","","","120","list","","congruentPrototype"
"","","","","","audio-keyboard-response","139","408615","0.0-20.0-0.100","null","stim/audio_stimuli/ashes.mp3","","test","stim/audio_stimuli/ashes.mp3","","","121","list","","congruentPrototype"
"","","","","","audio-keyboard-response","140","409618","0.0-20.0-0.101","null","stim/audio_stimuli/chimney.mp3","","test","stim/audio_stimuli/chimney.mp3","","","122","list","","congruentPrototype"
"","","","","","audio-keyboard-response","141","410620","0.0-20.0-0.102","null","stim/audio_stimuli/tobacco.mp3","","test","stim/audio_stimuli/tobacco.mp3","","","123","list","","congruentPrototype"
"","","","","","audio-keyboard-response","142","411622","0.0-20.0-0.103","null","stim/audio_stimuli/pipe.mp3","","test","stim/audio_stimuli/pipe.mp3","","","124","list","","congruentPrototype"
"","","","","","audio-keyboard-response","143","412624","0.0-20.0-0.104","null","stim/audio_stimuli/flames.mp3","","test","stim/audio_stimuli/flames.mp3","","","125","list","","congruentPrototype"
"","","","","","audio-keyboard-response","144","414627","0.0-20.0-0.105","null","stim/audio_tones/tone_1.mp3","","test","stim/audio_tones/tone_1.mp3","","","126","","","congruentPrototype"
"","","","","","audio-keyboard-response","145","419630","0.0-20.0-0.106","null","stim/audio_stimuli/smoke.mp3","70","test","stim/audio_stimuli/smoke.mp3","62.900000000000006","correct","127","target","70","congruentPrototype"
"","","","","","audio-keyboard-response","146","419661","0.0-20.0-0.107","null","stim/audio_instructions/silence.mp3","","test","stim/audio_instructions/silence.mp3","","","128","","","congruentPrototype"
"","","","","","audio-keyboard-response","147","423662","0.0-20.0-0.108","null","stim/audio_tones/tone_2.mp3","","test","stim/audio_tones/tone_2.mp3","","","129","","","congruentPrototype"
"","","","","","audio-keyboard-response","148","423673","0.0-20.0-0.109","null","stim/audio_instructions/silence.mp3","","test","stim/audio_instructions/silence.mp3","","","130","","","congruentPrototype"
"","","","","","audio-keyboard-response","149","424674","0.0-20.0-0.110","null","stim/audio_stimuli/seat.mp3","","test","stim/audio_stimuli/seat.mp3","","","131","list","","congruentPrototype"
"","","","","","audio-keyboard-response","150","425676","0.0-20.0-0.111","null","stim/audio_stimuli/desk.mp3","","test","stim/audio_stimuli/desk.mp3","","","132","list","","congruentPrototype"
"","","","","","audio-keyboard-response","151","426677","0.0-20.0-0.112","null","stim/audio_stimuli/sofa.mp3","","test","stim/audio_stimuli/sofa.mp3","","","133","list","","congruentPrototype"
"","","","","","audio-keyboard-response","152","427679","0.0-20.0-0.113","null","stim/audio_stimuli/cushion.mp3","","test","stim/audio_stimuli/cushion.mp3","","","134","list","","congruentPrototype"
"","","","","","audio-keyboard-response","153","428681","0.0-20.0-0.114","null","stim/audio_stimuli/stool.mp3","","test","stim/audio_stimuli/stool.mp3","","","135","list","","congruentPrototype"
"","","","","","audio-keyboard-response","154","429683","0.0-20.0-0.115","null","stim/audio_stimuli/rocking.mp3","","test","stim/audio_stimuli/rocking.mp3","","","136","list","","congruentPrototype"
"","","","","","audio-keyboard-response","155","431685","0.0-20.0-0.116","null","stim/audio_tones/tone_1.mp3","","test","stim/audio_tones/tone_1.mp3","","","137","","","congruentPrototype"
"","","","","","audio-keyboard-response","156","436687","0.0-20.0-0.117","null","stim/audio_stimuli/chair.mp3","70","test","stim/audio_stimuli/chair.mp3","81.4","correct","138","target","70","congruentPrototype"
"","","","","","audio-keyboard-response","157","436722","0.0-20.0-0.118","null","stim/audio_instructions/silence.mp3","","test","stim/audio_instructions/silence.mp3","","","139","","","congruentPrototype"
"","","","","","audio-keyboard-response","158","440723","0.0-20.0-0.119","null","stim/audio_tones/tone_2.mp3","","test","stim/audio_tones/tone_2.mp3","","","140","","","congruentPrototype"
"","","","","","audio-keyboard-response","159","440735","0.0-20.0-0.120","null","stim/audio_instructions/silence.mp3","","test","stim/audio_instructions/silence.mp3","","","141","","","congruentPrototype"
"","","","","","audio-keyboard-response","160","441736","0.0-20.0-0.121","null","stim/audio_stimuli/climb.mp3","","test","stim/audio_stimuli/climb.mp3","","","142","list","","incongruentHighestAssociate"
"","","","","","audio-keyboard-response","161","442737","0.0-20.0-0.122","null","stim/audio_stimuli/top2.mp3","","test","stim/audio_stimuli/top2.mp3","","","143","list","","incongruentHighestAssociate"
"","","","","","audio-keyboard-response","162","443738","0.0-20.0-0.123","null","stim/audio_stimuli/peak.mp3","","test","stim/audio_stimuli/peak.mp3","","","144","list","","incongruentHighestAssociate"
"","","","","","audio-keyboard-response","163","444740","0.0-20.0-0.124","null","stim/audio_stimuli/glacier.mp3","","test","stim/audio_stimuli/glacier.mp3","","","145","list","","incongruentHighestAssociate"
"","","","","","audio-keyboard-response","164","445742","0.0-20.0-0.125","null","stim/audio_stimuli/bike.mp3","","test","stim/audio_stimuli/bike.mp3","","","146","list","","incongruentHighestAssociate"
"","","","","","audio-keyboard-response","165","446743","0.0-20.0-0.126","null","stim/audio_stimuli/range.mp3","","test","stim/audio_stimuli/range.mp3","","","147","list","","incongruentHighestAssociate"
"","","","","","audio-keyboard-response","166","448745","0.0-20.0-0.127","null","stim/audio_tones/tone_1.mp3","","test","stim/audio_tones/tone_1.mp3","","","148","","","incongruentHighestAssociate"
"","","","","","audio-keyboard-response","167","453747","0.0-20.0-0.128","null","stim/audio_stimuli/town.mp3","74","test","stim/audio_stimuli/town.mp3","","","149","target","70","incongruentHighestAssociate"
"","","","","","audio-keyboard-response","168","453783","0.0-20.0-0.129","null","stim/audio_instructions/silence.mp3","","test","stim/audio_instructions/silence.mp3","","","150","","","incongruentHighestAssociate"
"","","","","","audio-keyboard-response","169","457786","0.0-20.0-0.130","null","stim/audio_tones/tone_2.mp3","","test","stim/audio_tones/tone_2.mp3","","","151","","","incongruentHighestAssociate"
"","","","","","audio-keyboard-response","170","457798","0.0-20.0-0.131","null","stim/audio_instructions/silence.mp3","","test","stim/audio_instructions/silence.mp3","","","152","","","incongruentHighestAssociate"
"","","","","","audio-keyboard-response","171","458800","0.0-20.0-0.132","null","stim/audio_stimuli/tire.mp3","","test","stim/audio_stimuli/tire.mp3","","","153","list","","congruentPrototype"
"","","","","","audio-keyboard-response","172","459803","0.0-20.0-0.133","null","stim/audio_stimuli/eraser.mp3","","test","stim/audio_stimuli/eraser.mp3","","","154","list","","congruentPrototype"
"","","","","","audio-keyboard-response","173","460806","0.0-20.0-0.134","null","stim/audio_stimuli/foam.mp3","","test","stim/audio_stimuli/foam.mp3","","","155","list","","congruentPrototype"
"","","","","","audio-keyboard-response","174","461808","0.0-20.0-0.135","null","stim/audio_stimuli/soles.mp3","","test","stim/audio_stimuli/soles.mp3","","","156","list","","congruentPrototype"
"","","","","","audio-keyboard-response","175","462811","0.0-20.0-0.136","null","stim/audio_stimuli/glue.mp3","","test","stim/audio_stimuli/glue.mp3","","","157","list","","congruentPrototype"
"","","","","","audio-keyboard-response","176","463814","0.0-20.0-0.137","null","stim/audio_stimuli/resilient.mp3","","test","stim/audio_stimuli/resilient.mp3","","","158","list","","congruentPrototype"
"","","","","","audio-keyboard-response","177","465828","0.0-20.0-0.138","null","stim/audio_tones/tone_1.mp3","","test","stim/audio_tones/tone_1.mp3","","","159","","","congruentPrototype"
"","","","","","audio-keyboard-response","178","470836","0.0-20.0-0.139","null","stim/audio_stimuli/rubber.mp3","74","test","stim/audio_stimuli/rubber.mp3","","","160","target","70","congruentPrototype"
"","","","","","audio-keyboard-response","179","470867","0.0-20.0-0.140","null","stim/audio_instructions/silence.mp3","","test","stim/audio_instructions/silence.mp3","","","161","","","congruentPrototype"
"","","","","","audio-keyboard-response","180","474871","0.0-20.0-0.141","null","stim/audio_tones/tone_2.mp3","","test","stim/audio_tones/tone_2.mp3","","","162","","","congruentPrototype"
"","","","","","audio-keyboard-response","181","474884","0.0-20.0-0.142","null","stim/audio_instructions/silence.mp3","","test","stim/audio_instructions/silence.mp3","","","163","","","congruentPrototype"
"","","","","","audio-keyboard-response","182","475885","0.0-20.0-0.143","null","stim/audio_stimuli/eye.mp3","","test","stim/audio_stimuli/eye.mp3","","","164","list","","incongruentHighestAssociate"
"","","","","","audio-keyboard-response","183","476887","0.0-20.0-0.144","null","stim/audio_stimuli/sharp.mp3","","test","stim/audio_stimuli/sharp.mp3","","","165","list","","incongruentHighestAssociate"
"","","","","","audio-keyboard-response","184","477889","0.0-20.0-0.145","null","stim/audio_stimuli/prick.mp3","","test","stim/audio_stimuli/prick.mp3","","","166","list","","incongruentHighestAssociate"
"","","","","","audio-keyboard-response","185","478892","0.0-20.0-0.146","null","stim/audio_stimuli/haystack.mp3","","test","stim/audio_stimuli/haystack.mp3","","","167","list","","incongruentHighestAssociate"
"","","","","","audio-keyboard-response","186","479895","0.0-20.0-0.147","null","stim/audio_stimuli/hurt.mp3","","test","stim/audio_stimuli/hurt.mp3","","","168","list","","incongruentHighestAssociate"
"","","","","","audio-keyboard-response","187","480897","0.0-20.0-0.148","null","stim/audio_stimuli/syringe.mp3","","test","stim/audio_stimuli/syringe.mp3","","","169","list","","incongruentHighestAssociate"
"","","","","","audio-keyboard-response","188","482901","0.0-20.0-0.149","null","stim/audio_tones/tone_1.mp3","","test","stim/audio_tones/tone_1.mp3","","","170","","","incongruentHighestAssociate"
"","","","","","audio-keyboard-response","189","487905","0.0-20.0-0.150","null","stim/audio_stimuli/banner.mp3","74","test","stim/audio_stimuli/banner.mp3","","","171","target","70","incongruentHighestAssociate"
"","","","","","audio-keyboard-response","190","487940","0.0-20.0-0.151","null","stim/audio_instructions/silence.mp3","","test","stim/audio_instructions/silence.mp3","","","172","","","incongruentHighestAssociate"
"","","","","","audio-keyboard-response","191","491942","0.0-20.0-0.152","null","stim/audio_tones/tone_2.mp3","","test","stim/audio_tones/tone_2.mp3","","","173","","","incongruentHighestAssociate"
"","","","","","audio-keyboard-response","192","491953","0.0-20.0-0.153","null","stim/audio_instructions/silence.mp3","","test","stim/audio_instructions/silence.mp3","","","174","","","incongruentHighestAssociate"
"","","","","","audio-keyboard-response","193","492955","0.0-20.0-0.154","null","stim/audio_stimuli/sewing.mp3","","test","stim/audio_stimuli/sewing.mp3","","","175","list","","congruentHighestAssociate_2"
"","","","","","audio-keyboard-response","194","493957","0.0-20.0-0.155","null","stim/audio_stimuli/thread.mp3","74","test","stim/audio_stimuli/thread.mp3","0","correct","176","target","74","congruentHighestAssociate_2"
"","","","","","audio-keyboard-response","195","494960","0.0-20.0-0.156","null","stim/audio_stimuli/thimble.mp3","","test","stim/audio_stimuli/thimble.mp3","","","177","list","","congruentHighestAssociate_2"
"","","","","","audio-keyboard-response","196","495962","0.0-20.0-0.157","null","stim/audio_stimuli/thorn.mp3","","test","stim/audio_stimuli/thorn.mp3","","","178","list","","congruentHighestAssociate_2"
"","","","","","audio-keyboard-response","197","496964","0.0-20.0-0.158","null","stim/audio_stimuli/injection.mp3","","test","stim/audio_stimuli/injection.mp3","","","179","list","","congruentHighestAssociate_2"
"","","","","","audio-keyboard-response","198","497966","0.0-20.0-0.159","null","stim/audio_stimuli/cloth.mp3","","test","stim/audio_stimuli/cloth.mp3","","","180","list","","congruentHighestAssociate_2"
"","","","","","audio-keyboard-response","199","499968","0.0-20.0-0.160","null","stim/audio_tones/tone_1.mp3","","test","stim/audio_tones/tone_1.mp3","","","181","","","congruentHighestAssociate_2"
"","","","","","audio-keyboard-response","200","504972","0.0-20.0-0.161","null","stim/audio_stimuli/thread.mp3","74","test","stim/audio_stimuli/thread.mp3","96.2","correct","182","target","74","congruentHighestAssociate_2"
"","","","","","audio-keyboard-response","201","505009","0.0-20.0-0.162","null","stim/audio_instructions/silence.mp3","","test","stim/audio_instructions/silence.mp3","","","183","","","congruentHighestAssociate_2"
"","","","","","audio-keyboard-response","202","509011","0.0-20.0-0.163","null","stim/audio_tones/tone_2.mp3","","test","stim/audio_tones/tone_2.mp3","","","184","","","congruentHighestAssociate_2"
"","","","","","audio-keyboard-response","203","509023","0.0-20.0-0.164","null","stim/audio_instructions/silence.mp3","","test","stim/audio_instructions/silence.mp3","","","185","","","congruentHighestAssociate_2"
"","","","","","audio-keyboard-response","204","510025","0.0-20.0-0.165","null","stim/audio_stimuli/blaze.mp3","","test","stim/audio_stimuli/blaze.mp3","","","186","list","","incongruentPrototype"
"","","","","","audio-keyboard-response","205","511027","0.0-20.0-0.166","null","stim/audio_stimuli/pollution.mp3","","test","stim/audio_stimuli/pollution.mp3","","","187","list","","incongruentPrototype"
"","","","","","audio-keyboard-response","206","512028","0.0-20.0-0.167","null","stim/audio_stimuli/cigar.mp3","","test","stim/audio_stimuli/cigar.mp3","","","188","list","","incongruentPrototype"
"","","","","","audio-keyboard-response","207","513029","0.0-20.0-0.168","null","stim/audio_stimuli/fire.mp3","","test","stim/audio_stimuli/fire.mp3","","","189","list","","incongruentPrototype"
"","","","","","audio-keyboard-response","208","514031","0.0-20.0-0.169","null","stim/audio_stimuli/stink.mp3","","test","stim/audio_stimuli/stink.mp3","","","190","list","","incongruentPrototype"
"","","","","","audio-keyboard-response","209","515032","0.0-20.0-0.170","null","stim/audio_stimuli/lungs.mp3","","test","stim/audio_stimuli/lungs.mp3","","","191","list","","incongruentPrototype"
"","","","","","audio-keyboard-response","210","517035","0.0-20.0-0.171","null","stim/audio_tones/tone_1.mp3","","test","stim/audio_tones/tone_1.mp3","","","192","","","incongruentPrototype"
"","","","","","audio-keyboard-response","211","522037","0.0-20.0-0.172","null","stim/audio_stimuli/cold.mp3","70","test","stim/audio_stimuli/cold.mp3","92.5","correct","193","target","70","incongruentPrototype"
"","","","","","audio-keyboard-response","212","522068","0.0-20.0-0.173","null","stim/audio_instructions/silence.mp3","","test","stim/audio_instructions/silence.mp3","","","194","","","incongruentPrototype"
"","","","","","audio-keyboard-response","213","526070","0.0-20.0-0.174","null","stim/audio_tones/tone_2.mp3","","test","stim/audio_tones/tone_2.mp3","","","195","","","incongruentPrototype"
"","","","","","audio-keyboard-response","214","526083","0.0-20.0-0.175","null","stim/audio_instructions/silence.mp3","","test","stim/audio_instructions/silence.mp3","","","196","","","incongruentPrototype"
"","","","","","audio-keyboard-response","215","527084","0.0-20.0-0.176","null","stim/audio_stimuli/legs.mp3","","test","stim/audio_stimuli/legs.mp3","","","197","list","","incongruentPrototype"
"","","","","","audio-keyboard-response","216","528086","0.0-20.0-0.177","null","stim/audio_stimuli/couch.mp3","","test","stim/audio_stimuli/couch.mp3","","","198","list","","incongruentPrototype"
"","","","","","audio-keyboard-response","217","529088","0.0-20.0-0.178","null","stim/audio_stimuli/recliner.mp3","","test","stim/audio_stimuli/recliner.mp3","","","199","list","","incongruentPrototype"
"","","","","","audio-keyboard-response","218","530090","0.0-20.0-0.179","null","stim/audio_stimuli/wood.mp3","","test","stim/audio_stimuli/wood.mp3","","","200","list","","incongruentPrototype"
"","","","","","audio-keyboard-response","219","531093","0.0-20.0-0.180","null","stim/audio_stimuli/swivel.mp3","","test","stim/audio_stimuli/swivel.mp3","","","201","list","","incongruentPrototype"
"","","","","","audio-keyboard-response","220","532095","0.0-20.0-0.181","null","stim/audio_stimuli/sitting.mp3","","test","stim/audio_stimuli/sitting.mp3","","","202","list","","incongruentPrototype"
"","","","","","audio-keyboard-response","221","534097","0.0-20.0-0.182","null","stim/audio_tones/tone_1.mp3","","test","stim/audio_tones/tone_1.mp3","","","203","","","incongruentPrototype"
"","","","","","audio-keyboard-response","222","539100","0.0-20.0-0.183","null","stim/audio_stimuli/foot.mp3","70","test","stim/audio_stimuli/foot.mp3","66.6","correct","204","target","70","incongruentPrototype"
"","","","","","audio-keyboard-response","223","539132","0.0-20.0-0.184","null","stim/audio_instructions/silence.mp3","","test","stim/audio_instructions/silence.mp3","","","205","","","incongruentPrototype"
"","","","","","audio-keyboard-response","224","543134","0.0-20.0-0.185","null","stim/audio_tones/tone_2.mp3","","test","stim/audio_tones/tone_2.mp3","","","206","","","incongruentPrototype"
"","","","","","audio-keyboard-response","225","543145","0.0-20.0-0.186","null","stim/audio_instructions/silence.mp3","","test","stim/audio_instructions/silence.mp3","","","207","","","incongruentPrototype"
"","","","","","audio-keyboard-response","226","544147","0.0-20.0-0.187","null","stim/audio_stimuli/gloves.mp3","","test","stim/audio_stimuli/gloves.mp3","","","208","list","","incongruentPrototype"
"","","","","","audio-keyboard-response","227","545148","0.0-20.0-0.188","null","stim/audio_stimuli/ball.mp3","","test","stim/audio_stimuli/ball.mp3","","","209","list","","incongruentPrototype"
"","","","","","audio-keyboard-response","228","546150","0.0-20.0-0.189","null","stim/audio_stimuli/springy.mp3","","test","stim/audio_stimuli/springy.mp3","","","210","list","","incongruentPrototype"
"","","","","","audio-keyboard-response","229","547151","0.0-20.0-0.190","null","stim/audio_stimuli/galoshes.mp3","","test","stim/audio_stimuli/galoshes.mp3","","","211","list","","incongruentPrototype"
"","","","","","audio-keyboard-response","230","548153","0.0-20.0-0.191","null","stim/audio_stimuli/latex.mp3","","test","stim/audio_stimuli/latex.mp3","","","212","list","","incongruentPrototype"
"","","","","","audio-keyboard-response","231","549155","0.0-20.0-0.192","null","stim/audio_stimuli/flexible.mp3","","test","stim/audio_stimuli/flexible.mp3","","","213","list","","incongruentPrototype"
"","","","","","audio-keyboard-response","232","551157","0.0-20.0-0.193","null","stim/audio_tones/tone_1.mp3","","test","stim/audio_tones/tone_1.mp3","","","214","","","incongruentPrototype"
"","","","","","audio-keyboard-response","233","556160","0.0-20.0-0.194","null","stim/audio_stimuli/girl.mp3","74","test","stim/audio_stimuli/girl.mp3","","","215","target","70","incongruentPrototype"
"","","","","","audio-keyboard-response","234","556172","0.0-20.0-0.195","null","stim/audio_instructions/silence.mp3","","test","stim/audio_instructions/silence.mp3","","","216","","","incongruentPrototype"
"","","","","","audio-keyboard-response","235","560173","0.0-20.0-0.196","null","stim/audio_tones/tone_2.mp3","","test","stim/audio_tones/tone_2.mp3","","","217","","","incongruentPrototype"
"","","","","","audio-keyboard-response","236","560184","0.0-20.0-0.197","null","stim/audio_instructions/silence.mp3","","test","stim/audio_instructions/silence.mp3","","","218","","","incongruentPrototype"
"","","","","","audio-keyboard-response","237","561186","0.0-20.0-0.198","null","stim/audio_stimuli/train.mp3","","test","stim/audio_stimuli/train.mp3","","","219","list","","incongruentPrototype"
"","","","","","audio-keyboard-response","238","562187","0.0-20.0-0.199","null","stim/audio_stimuli/vehicle.mp3","","test","stim/audio_stimuli/vehicle.mp3","","","220","list","","incongruentPrototype"
"","","","","","audio-keyboard-response","239","563189","0.0-20.0-0.200","null","stim/audio_stimuli/jeep.mp3","","test","stim/audio_stimuli/jeep.mp3","","","221","list","","incongruentPrototype"
"","","","","","audio-keyboard-response","240","564193","0.0-20.0-0.201","null","stim/audio_stimuli/race.mp3","","test","stim/audio_stimuli/race.mp3","","","222","list","","incongruentPrototype"
"","","","","","audio-keyboard-response","241","565196","0.0-20.0-0.202","null","stim/audio_stimuli/garage.mp3","","test","stim/audio_stimuli/garage.mp3","","","223","list","","incongruentPrototype"
"","","","","","audio-keyboard-response","242","566199","0.0-20.0-0.203","null","stim/audio_stimuli/sedan.mp3","","test","stim/audio_stimuli/sedan.mp3","","","224","list","","incongruentPrototype"
"","","","","","audio-keyboard-response","243","568202","0.0-20.0-0.204","null","stim/audio_tones/tone_1.mp3","","test","stim/audio_tones/tone_1.mp3","","","225","","","incongruentPrototype"
"","","","","","audio-keyboard-response","244","573205","0.0-20.0-0.205","null","stim/audio_stimuli/sweet.mp3","74","test","stim/audio_stimuli/sweet.mp3","","","226","target","70","incongruentPrototype"
"","","","","","audio-keyboard-response","245","573217","0.0-20.0-0.206","null","stim/audio_instructions/silence.mp3","","test","stim/audio_instructions/silence.mp3","","","227","","","incongruentPrototype"
"","","","","","audio-keyboard-response","246","577219","0.0-20.0-0.207","null","stim/audio_tones/tone_2.mp3","","test","stim/audio_tones/tone_2.mp3","","","228","","","incongruentPrototype"
"","","","","","audio-keyboard-response","247","577231","0.0-20.0-0.208","null","stim/audio_instructions/silence.mp3","","test","stim/audio_instructions/silence.mp3","","","229","","","incongruentPrototype"
"","","","","","audio-keyboard-response","248","578233","0.0-20.0-0.209","null","stim/audio_stimuli/sing.mp3","","test","stim/audio_stimuli/sing.mp3","","","230","list","","congruentHighestAssociate_2"
"","","","","","audio-keyboard-response","249","579235","0.0-20.0-0.210","null","stim/audio_stimuli/note.mp3","74","test","stim/audio_stimuli/note.mp3","0","correct","231","target","74","congruentHighestAssociate_2"
"","","","","","audio-keyboard-response","250","580237","0.0-20.0-0.211","null","stim/audio_stimuli/horn.mp3","","test","stim/audio_stimuli/horn.mp3","","","232","list","","congruentHighestAssociate_2"
"","","","","","audio-keyboard-response","251","581239","0.0-20.0-0.212","null","stim/audio_stimuli/instrument.mp3","","test","stim/audio_stimuli/instrument.mp3","","","233","list","","congruentHighestAssociate_2"
"","","","","","audio-keyboard-response","252","582241","0.0-20.0-0.213","null","stim/audio_stimuli/jazz.mp3","","test","stim/audio_stimuli/jazz.mp3","","","234","list","","congruentHighestAssociate_2"
"","","","","","audio-keyboard-response","253","583243","0.0-20.0-0.214","null","stim/audio_stimuli/art.mp3","","test","stim/audio_stimuli/art.mp3","","","235","list","","congruentHighestAssociate_2"
"","","","","","audio-keyboard-response","254","585246","0.0-20.0-0.215","null","stim/audio_tones/tone_1.mp3","","test","stim/audio_tones/tone_1.mp3","","","236","","","congruentHighestAssociate_2"
"","","","","","audio-keyboard-response","255","590250","0.0-20.0-0.216","null","stim/audio_stimuli/note.mp3","74","test","stim/audio_stimuli/note.mp3","92.5","correct","237","target","74","congruentHighestAssociate_2"
"","","","","","audio-keyboard-response","256","590261","0.0-20.0-0.217","null","stim/audio_instructions/silence.mp3","","test","stim/audio_instructions/silence.mp3","","","238","","","congruentHighestAssociate_2"
"","","","","","audio-keyboard-response","257","594264","0.0-20.0-0.218","null","stim/audio_tones/tone_2.mp3","","test","stim/audio_tones/tone_2.mp3","","","239","","","congruentHighestAssociate_2"
"","","","","","audio-keyboard-response","258","594277","0.0-20.0-0.219","null","stim/audio_instructions/silence.mp3","","test","stim/audio_instructions/silence.mp3","","","240","","","congruentHighestAssociate_2"
"","","","","","audio-keyboard-response","259","595278","0.0-20.0-0.220","null","stim/audio_stimuli/piano.mp3","","test","stim/audio_stimuli/piano.mp3","","","241","list","","incongruentHighestAssociate"
"","","","","","audio-keyboard-response","260","596279","0.0-20.0-0.221","null","stim/audio_stimuli/radio.mp3","","test","stim/audio_stimuli/radio.mp3","","","242","list","","incongruentHighestAssociate"
"","","","","","audio-keyboard-response","261","597282","0.0-20.0-0.222","null","stim/audio_stimuli/melody.mp3","","test","stim/audio_stimuli/melody.mp3","","","243","list","","incongruentHighestAssociate"
"","","","","","audio-keyboard-response","262","598285","0.0-20.0-0.223","null","stim/audio_stimuli/concert.mp3","","test","stim/audio_stimuli/concert.mp3","","","244","list","","incongruentHighestAssociate"
"","","","","","audio-keyboard-response","263","599288","0.0-20.0-0.224","null","stim/audio_stimuli/symphony.mp3","","test","stim/audio_stimuli/symphony.mp3","","","245","list","","incongruentHighestAssociate"
"","","","","","audio-keyboard-response","264","600289","0.0-20.0-0.225","null","stim/audio_stimuli/orchestra.mp3","","test","stim/audio_stimuli/orchestra.mp3","","","246","list","","incongruentHighestAssociate"
"","","","","","audio-keyboard-response","265","602291","0.0-20.0-0.226","null","stim/audio_tones/tone_1.mp3","","test","stim/audio_tones/tone_1.mp3","","","247","","","incongruentHighestAssociate"
"","","","","","audio-keyboard-response","266","607295","0.0-20.0-0.227","null","stim/audio_stimuli/cigarette.mp3","74","test","stim/audio_stimuli/cigarette.mp3","","","248","target","70","incongruentHighestAssociate"
"","","","","","audio-keyboard-response","267","607328","0.0-20.0-0.228","null","stim/audio_instructions/silence.mp3","","test","stim/audio_instructions/silence.mp3","","","249","","","incongruentHighestAssociate"
"","","","","","audio-keyboard-response","268","611330","0.0-20.0-0.229","null","stim/audio_tones/tone_2.mp3","","test","stim/audio_tones/tone_2.mp3","","","250","","","incongruentHighestAssociate"
"","","","","","audio-keyboard-response","269","611349","0.0-20.0-0.230","null","stim/audio_instructions/silence.mp3","","test","stim/audio_instructions/silence.mp3","","","251","","","incongruentHighestAssociate"
"","","","","","audio-keyboard-response","270","612351","0.0-20.0-0.231","null","stim/audio_stimuli/rage.mp3","","test","stim/audio_stimuli/rage.mp3","","","252","list","","congruentHighestAssociate_2"
"","","","","","audio-keyboard-response","271","613352","0.0-20.0-0.232","null","stim/audio_stimuli/mad.mp3","74","test","stim/audio_stimuli/mad.mp3","0","correct","253","target","74","congruentHighestAssociate_2"
"","","","","","audio-keyboard-response","272","614354","0.0-20.0-0.233","null","stim/audio_stimuli/wrath.mp3","","test","stim/audio_stimuli/wrath.mp3","","","254","list","","congruentHighestAssociate_2"
"","","","","","audio-keyboard-response","273","615356","0.0-20.0-0.234","null","stim/audio_stimuli/fight.mp3","","test","stim/audio_stimuli/fight.mp3","","","255","list","","congruentHighestAssociate_2"
"","","","","","audio-keyboard-response","274","616357","0.0-20.0-0.235","null","stim/audio_stimuli/mean.mp3","","test","stim/audio_stimuli/mean.mp3","","","256","list","","congruentHighestAssociate_2"
"","","","","","audio-keyboard-response","275","617359","0.0-20.0-0.236","null","stim/audio_stimuli/emotion.mp3","","test","stim/audio_stimuli/emotion.mp3","","","257","list","","congruentHighestAssociate_2"
"","","","","","audio-keyboard-response","276","619361","0.0-20.0-0.237","null","stim/audio_tones/tone_1.mp3","","test","stim/audio_tones/tone_1.mp3","","","258","","","congruentHighestAssociate_2"
"","","","","","audio-keyboard-response","277","624364","0.0-20.0-0.238","null","stim/audio_stimuli/mad.mp3","74","test","stim/audio_stimuli/mad.mp3","77.7","correct","259","target","74","congruentHighestAssociate_2"
"","","","","","audio-keyboard-response","278","624375","0.0-20.0-0.239","null","stim/audio_instructions/silence.mp3","","test","stim/audio_instructions/silence.mp3","","","260","","","congruentHighestAssociate_2"
"","","","","","audio-keyboard-response","279","628378","0.0-20.0-0.240","null","stim/audio_tones/tone_2.mp3","","test","stim/audio_tones/tone_2.mp3","","","261","","","congruentHighestAssociate_2"
"","","","","","audio-keyboard-response","280","628390","0.0-20.0-0.241","null","stim/audio_instructions/silence.mp3","","test","stim/audio_instructions/silence.mp3","","","262","","","congruentHighestAssociate_2"
"","","","","","audio-keyboard-response","281","629392","0.0-20.0-0.242","null","stim/audio_stimuli/orange.mp3","","test","stim/audio_stimuli/orange.mp3","","","263","list","","incongruentPrototype"
"","","","","","audio-keyboard-response","282","630393","0.0-20.0-0.243","null","stim/audio_stimuli/citrus.mp3","","test","stim/audio_stimuli/citrus.mp3","","","264","list","","incongruentPrototype"
"","","","","","audio-keyboard-response","283","631395","0.0-20.0-0.244","null","stim/audio_stimuli/pear.mp3","","test","stim/audio_stimuli/pear.mp3","","","265","list","","incongruentPrototype"
"","","","","","audio-keyboard-response","284","632397","0.0-20.0-0.245","null","stim/audio_stimuli/berry.mp3","","test","stim/audio_stimuli/berry.mp3","","","266","list","","incongruentPrototype"
"","","","","","audio-keyboard-response","285","633399","0.0-20.0-0.246","null","stim/audio_stimuli/basket.mp3","","test","stim/audio_stimuli/basket.mp3","","","267","list","","incongruentPrototype"
"","","","","","audio-keyboard-response","286","634401","0.0-20.0-0.247","null","stim/audio_stimuli/salad.mp3","","test","stim/audio_stimuli/salad.mp3","","","268","list","","incongruentPrototype"
"","","","","","audio-keyboard-response","287","636404","0.0-20.0-0.248","null","stim/audio_tones/tone_1.mp3","","test","stim/audio_tones/tone_1.mp3","","","269","","","incongruentPrototype"
"","","","","","audio-keyboard-response","288","641407","0.0-20.0-0.249","null","stim/audio_stimuli/window.mp3","70","test","stim/audio_stimuli/window.mp3","81.4","correct","270","target","70","incongruentPrototype"
"","","","","","audio-keyboard-response","289","641440","0.0-20.0-0.250","null","stim/audio_instructions/silence.mp3","","test","stim/audio_instructions/silence.mp3","","","271","","","incongruentPrototype"
"","","","","","audio-keyboard-response","290","645443","0.0-20.0-0.251","null","stim/audio_tones/tone_2.mp3","","test","stim/audio_tones/tone_2.mp3","","","272","","","incongruentPrototype"
"","","","","","audio-keyboard-response","291","645455","0.0-20.0-0.252","null","stim/audio_instructions/silence.mp3","","test","stim/audio_instructions/silence.mp3","","","273","","","incongruentPrototype"
"","","","","","audio-keyboard-response","292","646457","0.0-20.0-0.253","null","stim/audio_stimuli/tough.mp3","","test","stim/audio_stimuli/tough.mp3","","","274","list","","congruentHighestAssociate_3"
"","","","","","audio-keyboard-response","293","647460","0.0-20.0-0.254","null","stim/audio_stimuli/jagged.mp3","","test","stim/audio_stimuli/jagged.mp3","","","275","list","","congruentHighestAssociate_3"
"","","","","","audio-keyboard-response","294","648462","0.0-20.0-0.255","null","stim/audio_stimuli/smooth.mp3","","test","stim/audio_stimuli/smooth.mp3","","","276","list","","congruentHighestAssociate_3"
"","","","","","audio-keyboard-response","295","649463","0.0-20.0-0.256","null","stim/audio_stimuli/riders.mp3","","test","stim/audio_stimuli/riders.mp3","","","277","list","","congruentHighestAssociate_3"
"","","","","","audio-keyboard-response","296","650465","0.0-20.0-0.257","null","stim/audio_stimuli/sand.mp3","","test","stim/audio_stimuli/sand.mp3","","","278","list","","congruentHighestAssociate_3"
"","","","","","audio-keyboard-response","297","651467","0.0-20.0-0.258","null","stim/audio_stimuli/ground.mp3","","test","stim/audio_stimuli/ground.mp3","","","279","list","","congruentHighestAssociate_3"
"","","","","","audio-keyboard-response","298","653469","0.0-20.0-0.259","null","stim/audio_tones/tone_1.mp3","","test","stim/audio_tones/tone_1.mp3","","","280","","","congruentHighestAssociate_3"
"","","","","","audio-keyboard-response","299","658470","0.0-20.0-0.260","null","stim/audio_stimuli/smooth.mp3","74","test","stim/audio_stimuli/smooth.mp3","29.599999999999998","correct","281","target","74","congruentHighestAssociate_3"
"","","","","","audio-keyboard-response","300","658502","0.0-20.0-0.261","null","stim/audio_instructions/silence.mp3","","test","stim/audio_instructions/silence.mp3","","","282","","","congruentHighestAssociate_3"
"","","","","","audio-keyboard-response","301","662503","0.0-20.0-0.262","null","stim/audio_tones/tone_2.mp3","","test","stim/audio_tones/tone_2.mp3","","","283","","","congruentHighestAssociate_3"
"","","","","","audio-keyboard-response","302","662514","0.0-20.0-0.263","null","stim/audio_instructions/silence.mp3","","test","stim/audio_instructions/silence.mp3","","","284","","","congruentHighestAssociate_3"
"","","","","","audio-keyboard-response","303","663515","0.0-20.0-0.264","null","stim/audio_stimuli/automobile.mp3","","test","stim/audio_stimuli/automobile.mp3","","","285","list","","congruentPrototype"
"","","","","","audio-keyboard-response","304","664518","0.0-20.0-0.265","null","stim/audio_stimuli/drive.mp3","","test","stim/audio_stimuli/drive.mp3","","","286","list","","congruentPrototype"
"","","","","","audio-keyboard-response","305","665520","0.0-20.0-0.266","null","stim/audio_stimuli/ford.mp3","","test","stim/audio_stimuli/ford.mp3","","","287","list","","congruentPrototype"
"","","","","","audio-keyboard-response","306","666523","0.0-20.0-0.267","null","stim/audio_stimuli/keys.mp3","","test","stim/audio_stimuli/keys.mp3","","","288","list","","congruentPrototype"
"","","","","","audio-keyboard-response","307","667527","0.0-20.0-0.268","null","stim/audio_stimuli/highway.mp3","","test","stim/audio_stimuli/highway.mp3","","","289","list","","congruentPrototype"
"","","","","","audio-keyboard-response","308","668530","0.0-20.0-0.269","null","stim/audio_stimuli/van.mp3","","test","stim/audio_stimuli/van.mp3","","","290","list","","congruentPrototype"
"","","","","","audio-keyboard-response","309","670532","0.0-20.0-0.270","null","stim/audio_tones/tone_1.mp3","","test","stim/audio_tones/tone_1.mp3","","","291","","","congruentPrototype"
"","","","","","audio-keyboard-response","310","675536","0.0-20.0-0.271","null","stim/audio_stimuli/car.mp3","70","test","stim/audio_stimuli/car.mp3","85.10000000000001","correct","292","target","70","congruentPrototype"
"","","","","","audio-keyboard-response","311","675571","0.0-20.0-0.272","null","stim/audio_instructions/silence.mp3","","test","stim/audio_instructions/silence.mp3","","","293","","","congruentPrototype"
"","","","","","audio-keyboard-response","312","679573","0.0-20.0-0.273","null","stim/audio_tones/tone_2.mp3","","test","stim/audio_tones/tone_2.mp3","","","294","","","congruentPrototype"
"","","","","","audio-keyboard-response","313","679586","0.0-20.0-0.274","null","stim/audio_instructions/silence.mp3","","test","stim/audio_instructions/silence.mp3","","","295","","","congruentPrototype"
"","","","","","audio-keyboard-response","314","680588","0.0-20.0-0.275","null","stim/audio_stimuli/mississippi.mp3","","test","stim/audio_stimuli/mississippi.mp3","","","296","list","","congruentHighestAssociate_3"
"","","","","","audio-keyboard-response","315","681590","0.0-20.0-0.276","null","stim/audio_stimuli/tide.mp3","","test","stim/audio_stimuli/tide.mp3","","","297","list","","congruentHighestAssociate_3"
"","","","","","audio-keyboard-response","316","682593","0.0-20.0-0.277","null","stim/audio_stimuli/water.mp3","","test","stim/audio_stimuli/water.mp3","0","incorrect","298","target","74","congruentHighestAssociate_3"
"","","","","","audio-keyboard-response","317","683595","0.0-20.0-0.278","null","stim/audio_stimuli/barge.mp3","","test","stim/audio_stimuli/barge.mp3","","","299","list","","congruentHighestAssociate_3"
"","","","","","audio-keyboard-response","318","684600","0.0-20.0-0.279","null","stim/audio_stimuli/brook.mp3","","test","stim/audio_stimuli/brook.mp3","","","300","list","","congruentHighestAssociate_3"
"","","","","","audio-keyboard-response","319","685603","0.0-20.0-0.280","null","stim/audio_stimuli/bridge.mp3","","test","stim/audio_stimuli/bridge.mp3","","","301","list","","congruentHighestAssociate_3"
"","","","","","audio-keyboard-response","320","687606","0.0-20.0-0.281","null","stim/audio_tones/tone_1.mp3","","test","stim/audio_tones/tone_1.mp3","","","302","","","congruentHighestAssociate_3"
"","","","","","audio-keyboard-response","321","692608","0.0-20.0-0.282","null","stim/audio_stimuli/water.mp3","74","test","stim/audio_stimuli/water.mp3","88.8","correct","303","target","74","congruentHighestAssociate_3"
"","","","","","audio-keyboard-response","322","692640","0.0-20.0-0.283","null","stim/audio_instructions/silence.mp3","","test","stim/audio_instructions/silence.mp3","","","304","","","congruentHighestAssociate_3"
"","","","","","audio-keyboard-response","323","696642","0.0-20.0-0.284","null","stim/audio_tones/tone_2.mp3","","test","stim/audio_tones/tone_2.mp3","","","305","","","congruentHighestAssociate_3"
"","","","","","audio-keyboard-response","324","696654","0.0-20.0-0.285","null","stim/audio_instructions/silence.mp3","","test","stim/audio_instructions/silence.mp3","","","306","","","congruentHighestAssociate_3"
"","","","","","audio-keyboard-response","325","697655","0.0-20.0-0.286","null","stim/audio_stimuli/hate.mp3","","test","stim/audio_stimuli/hate.mp3","","","307","list","","incongruentHighestAssociate"
"","","","","","audio-keyboard-response","326","698657","0.0-20.0-0.287","null","stim/audio_stimuli/temper.mp3","","test","stim/audio_stimuli/temper.mp3","","","308","list","","incongruentHighestAssociate"
"","","","","","audio-keyboard-response","327","699658","0.0-20.0-0.288","null","stim/audio_stimuli/ire.mp3","","test","stim/audio_stimuli/ire.mp3","","","309","list","","incongruentHighestAssociate"
"","","","","","audio-keyboard-response","328","700660","0.0-20.0-0.289","null","stim/audio_stimuli/happy.mp3","","test","stim/audio_stimuli/happy.mp3","","","310","list","","incongruentHighestAssociate"
"","","","","","audio-keyboard-response","329","701661","0.0-20.0-0.290","null","stim/audio_stimuli/hatred.mp3","","test","stim/audio_stimuli/hatred.mp3","","","311","list","","incongruentHighestAssociate"
"","","","","","audio-keyboard-response","330","702663","0.0-20.0-0.291","null","stim/audio_stimuli/calm.mp3","","test","stim/audio_stimuli/calm.mp3","","","312","list","","incongruentHighestAssociate"
"","","","","","audio-keyboard-response","331","704665","0.0-20.0-0.292","null","stim/audio_tones/tone_1.mp3","","test","stim/audio_tones/tone_1.mp3","","","313","","","incongruentHighestAssociate"
"","","","","","audio-keyboard-response","332","709670","0.0-20.0-0.293","null","stim/audio_stimuli/table.mp3","70","test","stim/audio_stimuli/table.mp3","48.1","correct","314","target","70","incongruentHighestAssociate"
"","","","","","audio-keyboard-response","333","709707","0.0-20.0-0.294","null","stim/audio_instructions/silence.mp3","","test","stim/audio_instructions/silence.mp3","","","315","","","incongruentHighestAssociate"
"","","","","","audio-keyboard-response","334","713710","0.0-20.0-0.295","null","stim/audio_tones/tone_2.mp3","","test","stim/audio_tones/tone_2.mp3","","","316","","","incongruentHighestAssociate"
"","","","","","audio-keyboard-response","335","713722","0.0-20.0-0.296","null","stim/audio_instructions/silence.mp3","","test","stim/audio_instructions/silence.mp3","","","317","","","incongruentHighestAssociate"
"","","","","","audio-keyboard-response","336","714723","0.0-20.0-0.297","null","stim/audio_stimuli/measuring.mp3","","test","stim/audio_stimuli/measuring.mp3","","","318","list","","congruentHighestAssociate_3"
"","","","","","audio-keyboard-response","337","715725","0.0-20.0-0.298","null","stim/audio_stimuli/lid.mp3","","test","stim/audio_stimuli/lid.mp3","","","319","list","","congruentHighestAssociate_3"
"","","","","","audio-keyboard-response","338","716728","0.0-20.0-0.299","null","stim/audio_stimuli/mug.mp3","","test","stim/audio_stimuli/mug.mp3","0","incorrect","320","target","74","congruentHighestAssociate_3"
"","","","","","audio-keyboard-response","339","717729","0.0-20.0-0.300","null","stim/audio_stimuli/goblet.mp3","","test","stim/audio_stimuli/goblet.mp3","","","321","list","","congruentHighestAssociate_3"
"","","","","","audio-keyboard-response","340","718731","0.0-20.0-0.301","null","stim/audio_stimuli/stein.mp3","","test","stim/audio_stimuli/stein.mp3","","","322","list","","congruentHighestAssociate_3"
"","","","","","audio-keyboard-response","341","719734","0.0-20.0-0.302","null","stim/audio_stimuli/plastic.mp3","","test","stim/audio_stimuli/plastic.mp3","","","323","list","","congruentHighestAssociate_3"
"","","","","","audio-keyboard-response","342","721737","0.0-20.0-0.303","null","stim/audio_tones/tone_1.mp3","","test","stim/audio_tones/tone_1.mp3","","","324","","","congruentHighestAssociate_3"
"","","","","","audio-keyboard-response","343","726740","0.0-20.0-0.304","null","stim/audio_stimuli/mug.mp3","74","test","stim/audio_stimuli/mug.mp3","81.4","correct","325","target","74","congruentHighestAssociate_3"
"","","","","","audio-keyboard-response","344","726752","0.0-20.0-0.305","null","stim/audio_instructions/silence.mp3","","test","stim/audio_instructions/silence.mp3","","","326","","","congruentHighestAssociate_3"
"","","","","","audio-keyboard-response","345","730754","0.0-20.0-0.306","null","stim/audio_tones/tone_2.mp3","","test","stim/audio_tones/tone_2.mp3","","","327","","","congruentHighestAssociate_3"
"","","","","","audio-keyboard-response","346","730769","0.0-20.0-0.307","null","stim/audio_instructions/silence.mp3","","test","stim/audio_instructions/silence.mp3","","","328","","","congruentHighestAssociate_3"
"","","","","","audio-keyboard-response","347","731770","0.0-20.0-0.308","null","stim/audio_stimuli/road.mp3","","test","stim/audio_stimuli/road.mp3","","","329","list","","incongruentHighestAssociate"
"","","","","","audio-keyboard-response","348","732772","0.0-20.0-0.309","null","stim/audio_stimuli/sandpaper.mp3","","test","stim/audio_stimuli/sandpaper.mp3","","","330","list","","incongruentHighestAssociate"
"","","","","","audio-keyboard-response","349","733774","0.0-20.0-0.310","null","stim/audio_stimuli/ready.mp3","","test","stim/audio_stimuli/ready.mp3","","","331","list","","incongruentHighestAssociate"
"","","","","","audio-keyboard-response","350","734776","0.0-20.0-0.311","null","stim/audio_stimuli/uneven.mp3","","test","stim/audio_stimuli/uneven.mp3","","","332","list","","incongruentHighestAssociate"
"","","","","","audio-keyboard-response","351","735778","0.0-20.0-0.312","null","stim/audio_stimuli/rugged.mp3","","test","stim/audio_stimuli/rugged.mp3","","","333","list","","incongruentHighestAssociate"
"","","","","","audio-keyboard-response","352","736779","0.0-20.0-0.313","null","stim/audio_stimuli/boards.mp3","","test","stim/audio_stimuli/boards.mp3","","","334","list","","incongruentHighestAssociate"
"","","","","","audio-keyboard-response","353","738782","0.0-20.0-0.314","null","stim/audio_tones/tone_1.mp3","","test","stim/audio_tones/tone_1.mp3","","","335","","","incongruentHighestAssociate"
"","","","","","audio-keyboard-response","354","743786","0.0-20.0-0.315","null","stim/audio_stimuli/elastic.mp3","70","test","stim/audio_stimuli/elastic.mp3","77.7","correct","336","target","70","incongruentHighestAssociate"
"","","","","","audio-keyboard-response","355","743798","0.0-20.0-0.316","null","stim/audio_instructions/silence.mp3","","test","stim/audio_instructions/silence.mp3","","","337","","","incongruentHighestAssociate"
"","","","","","audio-keyboard-response","356","747799","0.0-20.0-0.317","null","stim/audio_tones/tone_2.mp3","","test","stim/audio_tones/tone_2.mp3","","","338","","","incongruentHighestAssociate"
"","","","","","audio-keyboard-response","357","747812","0.0-20.0-0.318","null","stim/audio_instructions/silence.mp3","","test","stim/audio_instructions/silence.mp3","","","339","","","incongruentHighestAssociate"
"","","","","","audio-keyboard-response","358","748815","0.0-20.0-0.319","null","stim/audio_stimuli/kiwi.mp3","","test","stim/audio_stimuli/kiwi.mp3","","","340","list","","congruentPrototype"
"","","","","","audio-keyboard-response","359","749816","0.0-20.0-0.320","null","stim/audio_stimuli/ripe.mp3","","test","stim/audio_stimuli/ripe.mp3","","","341","list","","congruentPrototype"
"","","","","","audio-keyboard-response","360","750819","0.0-20.0-0.321","null","stim/audio_stimuli/banana.mp3","","test","stim/audio_stimuli/banana.mp3","","","342","list","","congruentPrototype"
"","","","","","audio-keyboard-response","361","751823","0.0-20.0-0.322","null","stim/audio_stimuli/cherry.mp3","","test","stim/audio_stimuli/cherry.mp3","","","343","list","","congruentPrototype"
"","","","","","audio-keyboard-response","362","752827","0.0-20.0-0.323","null","stim/audio_stimuli/juice.mp3","","test","stim/audio_stimuli/juice.mp3","","","344","list","","congruentPrototype"
"","","","","","audio-keyboard-response","363","753828","0.0-20.0-0.324","null","stim/audio_stimuli/bowl.mp3","","test","stim/audio_stimuli/bowl.mp3","","","345","list","","congruentPrototype"
"","","","","","audio-keyboard-response","364","755829","0.0-20.0-0.325","null","stim/audio_tones/tone_1.mp3","","test","stim/audio_tones/tone_1.mp3","","","346","","","congruentPrototype"
"","","","","","audio-keyboard-response","365","760833","0.0-20.0-0.326","null","stim/audio_stimuli/fruit.mp3","74","test","stim/audio_stimuli/fruit.mp3","","","347","target","70","congruentPrototype"
"","","","","","audio-keyboard-response","366","760845","0.0-20.0-0.327","null","stim/audio_instructions/silence.mp3","","test","stim/audio_instructions/silence.mp3","","","348","","","congruentPrototype"
"","","","","","audio-keyboard-response","367","764847","0.0-20.0-0.328","null","stim/audio_tones/tone_2.mp3","","test","stim/audio_tones/tone_2.mp3","","","349","","","congruentPrototype"
"","","","","","audio-keyboard-response","368","764860","0.0-20.0-0.329","null","stim/audio_instructions/silence.mp3","","test","stim/audio_instructions/silence.mp3","","","350","","","congruentPrototype"
"","","","","","audio-keyboard-response","369","765861","0.0-20.0-0.330","null","stim/audio_stimuli/lake.mp3","","test","stim/audio_stimuli/lake.mp3","","","351","list","","incongruentHighestAssociate"
"","","","","","audio-keyboard-response","370","766862","0.0-20.0-0.331","null","stim/audio_stimuli/boat.mp3","","test","stim/audio_stimuli/boat.mp3","","","352","list","","incongruentHighestAssociate"
"","","","","","audio-keyboard-response","371","767865","0.0-20.0-0.332","null","stim/audio_stimuli/swim.mp3","","test","stim/audio_stimuli/swim.mp3","","","353","list","","incongruentHighestAssociate"
"","","","","","audio-keyboard-response","372","768866","0.0-20.0-0.333","null","stim/audio_stimuli/run.mp3","","test","stim/audio_stimuli/run.mp3","","","354","list","","incongruentHighestAssociate"
"","","","","","audio-keyboard-response","373","769868","0.0-20.0-0.334","null","stim/audio_stimuli/creek.mp3","","test","stim/audio_stimuli/creek.mp3","","","355","list","","incongruentHighestAssociate"
"","","","","","audio-keyboard-response","374","770871","0.0-20.0-0.335","null","stim/audio_stimuli/fish.mp3","","test","stim/audio_stimuli/fish.mp3","","","356","list","","incongruentHighestAssociate"
"","","","","","audio-keyboard-response","375","772874","0.0-20.0-0.336","null","stim/audio_tones/tone_1.mp3","","test","stim/audio_tones/tone_1.mp3","","","357","","","incongruentHighestAssociate"
"","","","","","audio-keyboard-response","376","777879","0.0-20.0-0.337","null","stim/audio_stimuli/truck.mp3","70","test","stim/audio_stimuli/truck.mp3","62.900000000000006","correct","358","target","70","incongruentHighestAssociate"
"","","","","","audio-keyboard-response","377","777913","0.0-20.0-0.338","null","stim/audio_instructions/silence.mp3","","test","stim/audio_instructions/silence.mp3","","","359","","","incongruentHighestAssociate"
"","","","","","audio-keyboard-response","378","781915","0.0-20.0-0.339","null","stim/audio_tones/tone_2.mp3","","test","stim/audio_tones/tone_2.mp3","","","360","","","incongruentHighestAssociate"
"","","","","","audio-keyboard-response","379","781928","0.0-20.0-0.340","null","stim/audio_instructions/silence.mp3","","test","stim/audio_instructions/silence.mp3","","","361","","","incongruentHighestAssociate"
"","","","","","audio-keyboard-response","380","782929","0.0-20.0-0.341","null","stim/audio_stimuli/awake.mp3","","test","stim/audio_stimuli/awake.mp3","","","362","list","","incongruentPrototype"
"","","","","","audio-keyboard-response","381","783932","0.0-20.0-0.342","null","stim/audio_stimuli/dream.mp3","","test","stim/audio_stimuli/dream.mp3","","","363","list","","incongruentPrototype"
"","","","","","audio-keyboard-response","382","784935","0.0-20.0-0.343","null","stim/audio_stimuli/snooze.mp3","","test","stim/audio_stimuli/snooze.mp3","","","364","list","","incongruentPrototype"
"","","","","","audio-keyboard-response","383","785938","0.0-20.0-0.344","null","stim/audio_stimuli/doze.mp3","","test","stim/audio_stimuli/doze.mp3","","","365","list","","incongruentPrototype"
"","","","","","audio-keyboard-response","384","786940","0.0-20.0-0.345","null","stim/audio_stimuli/snore.mp3","","test","stim/audio_stimuli/snore.mp3","","","366","list","","incongruentPrototype"
"","","","","","audio-keyboard-response","385","787943","0.0-20.0-0.346","null","stim/audio_stimuli/peace.mp3","","test","stim/audio_stimuli/peace.mp3","","","367","list","","incongruentPrototype"
"","","","","","audio-keyboard-response","386","789946","0.0-20.0-0.347","null","stim/audio_tones/tone_1.mp3","","test","stim/audio_tones/tone_1.mp3","","","368","","","incongruentPrototype"
"","","","","","audio-keyboard-response","387","794949","0.0-20.0-0.348","null","stim/audio_stimuli/high.mp3","74","test","stim/audio_stimuli/high.mp3","","","369","target","70","incongruentPrototype"
"","","","","","audio-keyboard-response","388","794961","0.0-20.0-0.349","null","stim/audio_instructions/silence.mp3","","test","stim/audio_instructions/silence.mp3","","","370","","","incongruentPrototype"
"","","","","","audio-keyboard-response","389","798964","0.0-20.0-0.350","null","stim/audio_tones/tone_2.mp3","","test","stim/audio_tones/tone_2.mp3","","","371","","","incongruentPrototype"
"","","","","","audio-keyboard-response","390","798977","0.0-20.0-0.351","null","stim/audio_instructions/silence.mp3","","test","stim/audio_instructions/silence.mp3","","","372","","","incongruentPrototype"
"","","","","","audio-keyboard-response","391","799979","0.0-20.0-0.352","null","stim/audio_stimuli/tired.mp3","","test","stim/audio_stimuli/tired.mp3","","","373","list","","congruentPrototype"
"","","","","","audio-keyboard-response","392","800981","0.0-20.0-0.353","null","stim/audio_stimuli/wake.mp3","","test","stim/audio_stimuli/wake.mp3","","","374","list","","congruentPrototype"
"","","","","","audio-keyboard-response","393","801982","0.0-20.0-0.354","null","stim/audio_stimuli/blanket.mp3","","test","stim/audio_stimuli/blanket.mp3","","","375","list","","congruentPrototype"
"","","","","","audio-keyboard-response","394","802985","0.0-20.0-0.355","null","stim/audio_stimuli/slumber.mp3","","test","stim/audio_stimuli/slumber.mp3","","","376","list","","congruentPrototype"
"","","","","","audio-keyboard-response","395","803987","0.0-20.0-0.356","null","stim/audio_stimuli/nap.mp3","","test","stim/audio_stimuli/nap.mp3","","","377","list","","congruentPrototype"
"","","","","","audio-keyboard-response","396","804990","0.0-20.0-0.357","null","stim/audio_stimuli/yawn.mp3","","test","stim/audio_stimuli/yawn.mp3","","","378","list","","congruentPrototype"
"","","","","","audio-keyboard-response","397","806993","0.0-20.0-0.358","null","stim/audio_tones/tone_1.mp3","","test","stim/audio_tones/tone_1.mp3","","","379","","","congruentPrototype"
"","","","","","audio-keyboard-response","398","811997","0.0-20.0-0.359","null","stim/audio_stimuli/sleep.mp3","74","test","stim/audio_stimuli/sleep.mp3","","","380","target","70","congruentPrototype"
"","","","","","audio-keyboard-response","399","812008","0.0-20.0-0.360","null","stim/audio_instructions/silence.mp3","","test","stim/audio_instructions/silence.mp3","","","381","","","congruentPrototype"
"","","","","","audio-keyboard-response","400","816010","0.0-20.0-0.361","null","stim/audio_tones/tone_2.mp3","","test","stim/audio_tones/tone_2.mp3","","","382","","","congruentPrototype"
"","","","","","audio-keyboard-response","401","816022","0.0-20.0-0.362","null","stim/audio_instructions/silence.mp3","","test","stim/audio_instructions/silence.mp3","","","383","","","congruentPrototype"
"","","","","","audio-keyboard-response","402","817023","0.0-20.0-0.363","null","stim/audio_stimuli/tea.mp3","","test","stim/audio_stimuli/tea.mp3","","","384","list","","incongruentHighestAssociate"
"","","","","","audio-keyboard-response","403","818024","0.0-20.0-0.364","null","stim/audio_stimuli/coaster.mp3","","test","stim/audio_stimuli/coaster.mp3","","","385","list","","incongruentHighestAssociate"
"","","","","","audio-keyboard-response","404","819026","0.0-20.0-0.365","null","stim/audio_stimuli/handle.mp3","","test","stim/audio_stimuli/handle.mp3","","","386","list","","incongruentHighestAssociate"
"","","","","","audio-keyboard-response","405","820028","0.0-20.0-0.366","null","stim/audio_stimuli/straw.mp3","","test","stim/audio_stimuli/straw.mp3","","","387","list","","incongruentHighestAssociate"
"","","","","","audio-keyboard-response","406","821030","0.0-20.0-0.367","null","stim/audio_stimuli/soup.mp3","","test","stim/audio_stimuli/soup.mp3","","","388","list","","incongruentHighestAssociate"
"","","","","","audio-keyboard-response","407","822032","0.0-20.0-0.368","null","stim/audio_stimuli/drink.mp3","","test","stim/audio_stimuli/drink.mp3","","","389","list","","incongruentHighestAssociate"
"","","","","","audio-keyboard-response","408","824033","0.0-20.0-0.369","null","stim/audio_tones/tone_1.mp3","","test","stim/audio_tones/tone_1.mp3","","","390","","","incongruentHighestAssociate"
"","","","","","audio-keyboard-response","409","829036","0.0-20.0-0.370","null","stim/audio_stimuli/apple.mp3","70","test","stim/audio_stimuli/apple.mp3","48.1","correct","391","target","70","incongruentHighestAssociate"
"","","","","","audio-keyboard-response","410","829050","0.0-20.0-0.371","null","stim/audio_instructions/silence.mp3","","test","stim/audio_instructions/silence.mp3","","","392","","","incongruentHighestAssociate"
"","","","","","audio-keyboard-response","411","833052","0.0-20.0-0.372","null","stim/audio_tones/tone_2.mp3","","test","stim/audio_tones/tone_2.mp3","","","393","","","incongruentHighestAssociate"
"","","","","","audio-keyboard-response","412","833064","0.0-20.0-0.373","null","stim/audio_instructions/silence.mp3","","test","stim/audio_instructions/silence.mp3","","","394","","","incongruentHighestAssociate"
"","","","","","audio-keyboard-response","413","834065","0.0-20.0-0.374","null","stim/audio_stimuli/up.mp3","","test","stim/audio_stimuli/up.mp3","","","395","list","","incongruentPrototype"
"","","","","","audio-keyboard-response","414","835066","0.0-20.0-0.375","null","stim/audio_stimuli/tower.mp3","","test","stim/audio_stimuli/tower.mp3","","","396","list","","incongruentPrototype"
"","","","","","audio-keyboard-response","415","836068","0.0-20.0-0.376","null","stim/audio_stimuli/above.mp3","","test","stim/audio_stimuli/above.mp3","","","397","list","","incongruentPrototype"
"","","","","","audio-keyboard-response","416","837070","0.0-20.0-0.377","null","stim/audio_stimuli/noon.mp3","","test","stim/audio_stimuli/noon.mp3","","","398","list","","incongruentPrototype"
"","","","","","audio-keyboard-response","417","838072","0.0-20.0-0.378","null","stim/audio_stimuli/sky.mp3","","test","stim/audio_stimuli/sky.mp3","","","399","list","","incongruentPrototype"
"","","","","","audio-keyboard-response","418","839073","0.0-20.0-0.379","null","stim/audio_stimuli/airplane.mp3","","test","stim/audio_stimuli/airplane.mp3","","","400","list","","incongruentPrototype"
"","","","","","audio-keyboard-response","419","841074","0.0-20.0-0.380","null","stim/audio_tones/tone_1.mp3","","test","stim/audio_tones/tone_1.mp3","","","401","","","incongruentPrototype"
"","","","","","audio-keyboard-response","420","846078","0.0-20.0-0.381","null","stim/audio_stimuli/sleep.mp3","74","test","stim/audio_stimuli/sleep.mp3","","","402","target","70","incongruentPrototype"
"","","","","","audio-keyboard-response","421","846090","0.0-20.0-0.382","null","stim/audio_instructions/silence.mp3","","test","stim/audio_instructions/silence.mp3","","","403","","","incongruentPrototype"
"","","","","","audio-keyboard-response","422","850092","0.0-20.0-0.383","null","stim/audio_tones/tone_2.mp3","","test","stim/audio_tones/tone_2.mp3","","","404","","","incongruentPrototype"
"","","","","","audio-keyboard-response","423","850105","0.0-20.0-0.384","null","stim/audio_instructions/silence.mp3","","test","stim/audio_instructions/silence.mp3","","","405","","","incongruentPrototype"
"","","","","","audio-keyboard-response","424","851108","0.0-20.0-0.385","null","stim/audio_stimuli/tie.mp3","","test","stim/audio_stimuli/tie.mp3","","","406","list","","congruentHighestAssociate_3"
"","","","","","audio-keyboard-response","425","852110","0.0-20.0-0.386","null","stim/audio_stimuli/shorts.mp3","","test","stim/audio_stimuli/shorts.mp3","","","407","list","","congruentHighestAssociate_3"
"","","","","","audio-keyboard-response","426","853112","0.0-20.0-0.387","null","stim/audio_stimuli/blouse.mp3","74","test","stim/audio_stimuli/blouse.mp3","0","correct","408","target","74","congruentHighestAssociate_3"
"","","","","","audio-keyboard-response","427","854113","0.0-20.0-0.388","null","stim/audio_stimuli/vest.mp3","","test","stim/audio_stimuli/vest.mp3","","","409","list","","congruentHighestAssociate_3"
"","","","","","audio-keyboard-response","428","855115","0.0-20.0-0.389","null","stim/audio_stimuli/jersey.mp3","","test","stim/audio_stimuli/jersey.mp3","","","410","list","","congruentHighestAssociate_3"
"","","","","","audio-keyboard-response","429","856117","0.0-20.0-0.390","null","stim/audio_stimuli/linen.mp3","","test","stim/audio_stimuli/linen.mp3","","","411","list","","congruentHighestAssociate_3"
"","","","","","audio-keyboard-response","430","858119","0.0-20.0-0.391","null","stim/audio_tones/tone_1.mp3","","test","stim/audio_tones/tone_1.mp3","","","412","","","congruentHighestAssociate_3"
"","","","","","audio-keyboard-response","431","863123","0.0-20.0-0.392","null","stim/audio_stimuli/blouse.mp3","70","test","stim/audio_stimuli/blouse.mp3","","","413","target","74","congruentHighestAssociate_3"
"","","","","","audio-keyboard-response","432","863156","0.0-20.0-0.393","null","stim/audio_instructions/silence.mp3","","test","stim/audio_instructions/silence.mp3","","","414","","","congruentHighestAssociate_3"
"","","","","","audio-keyboard-response","433","867160","0.0-20.0-0.394","null","stim/audio_tones/tone_2.mp3","","test","stim/audio_tones/tone_2.mp3","","","415","","","congruentHighestAssociate_3"
"","","","","","audio-keyboard-response","434","867173","0.0-20.0-0.395","null","stim/audio_instructions/silence.mp3","","test","stim/audio_instructions/silence.mp3","","","416","","","congruentHighestAssociate_3"
"","","","","","audio-keyboard-response","435","868175","0.0-20.0-0.396","null","stim/audio_stimuli/pants.mp3","","test","stim/audio_stimuli/pants.mp3","","","417","list","","incongruentHighestAssociate"
"","","","","","audio-keyboard-response","436","869176","0.0-20.0-0.397","null","stim/audio_stimuli/button.mp3","","test","stim/audio_stimuli/button.mp3","","","418","list","","incongruentHighestAssociate"
"","","","","","audio-keyboard-response","437","870178","0.0-20.0-0.398","null","stim/audio_stimuli/iron.mp3","","test","stim/audio_stimuli/iron.mp3","","","419","list","","incongruentHighestAssociate"
"","","","","","audio-keyboard-response","438","871179","0.0-20.0-0.399","null","stim/audio_stimuli/collar.mp3","","test","stim/audio_stimuli/collar.mp3","","","420","list","","incongruentHighestAssociate"
"","","","","","audio-keyboard-response","439","872180","0.0-20.0-0.400","null","stim/audio_stimuli/pocket.mp3","","test","stim/audio_stimuli/pocket.mp3","","","421","list","","incongruentHighestAssociate"
"","","","","","audio-keyboard-response","440","873182","0.0-20.0-0.401","null","stim/audio_stimuli/belt.mp3","","test","stim/audio_stimuli/belt.mp3","","","422","list","","incongruentHighestAssociate"
"","","","","","audio-keyboard-response","441","875183","0.0-20.0-0.402","null","stim/audio_tones/tone_1.mp3","","test","stim/audio_tones/tone_1.mp3","","","423","","","incongruentHighestAssociate"
"","","","","","audio-keyboard-response","442","880187","0.0-20.0-0.403","null","stim/audio_stimuli/bed.mp3","74","test","stim/audio_stimuli/bed.mp3","","","424","target","70","incongruentHighestAssociate"
"","","","","","audio-keyboard-response","443","880220","0.0-20.0-0.404","null","stim/audio_instructions/silence.mp3","","test","stim/audio_instructions/silence.mp3","","","425","","","incongruentHighestAssociate"
"","","","","","audio-keyboard-response","444","884223","0.0-20.0-0.405","null","stim/audio_tones/tone_2.mp3","","test","stim/audio_tones/tone_2.mp3","","","426","","","incongruentHighestAssociate"
"","","","","","audio-keyboard-response","445","884238","0.0-20.0-0.406","null","stim/audio_instructions/silence.mp3","","test","stim/audio_instructions/silence.mp3","","","427","","","incongruentHighestAssociate"
"","","","","","audio-keyboard-response","446","885240","0.0-20.0-0.407","null","stim/audio_stimuli/cat.mp3","","test","stim/audio_stimuli/cat.mp3","","","428","list","","incongruentHighestAssociate"
"","","","","","audio-keyboard-response","447","886242","0.0-20.0-0.408","null","stim/audio_stimuli/night.mp3","","test","stim/audio_stimuli/night.mp3","","","429","list","","incongruentHighestAssociate"
"","","","","","audio-keyboard-response","448","887243","0.0-20.0-0.409","null","stim/audio_stimuli/color.mp3","","test","stim/audio_stimuli/color.mp3","","","430","list","","incongruentHighestAssociate"
"","","","","","audio-keyboard-response","449","888245","0.0-20.0-0.410","null","stim/audio_stimuli/blue.mp3","","test","stim/audio_stimuli/blue.mp3","","","431","list","","incongruentHighestAssociate"
"","","","","","audio-keyboard-response","450","889247","0.0-20.0-0.411","null","stim/audio_stimuli/ink.mp3","","test","stim/audio_stimuli/ink.mp3","","","432","list","","incongruentHighestAssociate"
"","","","","","audio-keyboard-response","451","890250","0.0-20.0-0.412","null","stim/audio_stimuli/coal.mp3","","test","stim/audio_stimuli/coal.mp3","","","433","list","","incongruentHighestAssociate"
"","","","","","audio-keyboard-response","452","892253","0.0-20.0-0.413","null","stim/audio_tones/tone_1.mp3","","test","stim/audio_tones/tone_1.mp3","","","434","","","incongruentHighestAssociate"
"","","","","","audio-keyboard-response","453","897257","0.0-20.0-0.414","null","stim/audio_stimuli/low.mp3","70","test","stim/audio_stimuli/low.mp3","66.6","correct","435","target","70","incongruentHighestAssociate"
"","","","","","audio-keyboard-response","454","897290","0.0-20.0-0.415","null","stim/audio_instructions/silence.mp3","","test","stim/audio_instructions/silence.mp3","","","436","","","incongruentHighestAssociate"
"","","","","","audio-keyboard-response","455","901291","0.0-20.0-0.416","null","stim/audio_tones/tone_2.mp3","","test","stim/audio_tones/tone_2.mp3","","","437","","","incongruentHighestAssociate"
"","","","","","audio-keyboard-response","456","901302","0.0-20.0-0.417","null","stim/audio_instructions/silence.mp3","","test","stim/audio_instructions/silence.mp3","","","438","","","incongruentHighestAssociate"
"","","","","","audio-keyboard-response","457","902303","0.0-20.0-0.418","null","stim/audio_stimuli/charred.mp3","","test","stim/audio_stimuli/charred.mp3","","","439","list","","congruentHighestAssociate_4"
"","","","","","audio-keyboard-response","458","903306","0.0-20.0-0.419","null","stim/audio_stimuli/funeral.mp3","","test","stim/audio_stimuli/funeral.mp3","","","440","list","","congruentHighestAssociate_4"
"","","","","","audio-keyboard-response","459","904308","0.0-20.0-0.420","null","stim/audio_stimuli/grief.mp3","","test","stim/audio_stimuli/grief.mp3","","","441","list","","congruentHighestAssociate_4"
"","","","","","audio-keyboard-response","460","905309","0.0-20.0-0.421","null","stim/audio_stimuli/white.mp3","","test","stim/audio_stimuli/white.mp3","","","442","list","","congruentHighestAssociate_4"
"","","","","","audio-keyboard-response","461","906310","0.0-20.0-0.422","null","stim/audio_stimuli/bottom.mp3","","test","stim/audio_stimuli/bottom.mp3","","","443","list","","congruentHighestAssociate_4"
"","","","","","audio-keyboard-response","462","907311","0.0-20.0-0.423","null","stim/audio_stimuli/brown.mp3","","test","stim/audio_stimuli/brown.mp3","","","444","list","","congruentHighestAssociate_4"
"","","","","","audio-keyboard-response","463","909314","0.0-20.0-0.424","null","stim/audio_tones/tone_1.mp3","","test","stim/audio_tones/tone_1.mp3","","","445","","","congruentHighestAssociate_4"
"","","","","","audio-keyboard-response","464","914318","0.0-20.0-0.425","null","stim/audio_stimuli/white.mp3","74","test","stim/audio_stimuli/white.mp3","92.5","correct","446","target","74","congruentHighestAssociate_4"
"","","","","","audio-keyboard-response","465","914355","0.0-20.0-0.426","null","stim/audio_instructions/silence.mp3","","test","stim/audio_instructions/silence.mp3","","","447","","","congruentHighestAssociate_4"
"","","","","","audio-keyboard-response","466","918359","0.0-20.0-0.427","null","stim/audio_tones/tone_2.mp3","","test","stim/audio_tones/tone_2.mp3","","","448","","","congruentHighestAssociate_4"
"","","","","","audio-keyboard-response","467","918373","0.0-20.0-0.428","null","stim/audio_instructions/silence.mp3","","test","stim/audio_instructions/silence.mp3","","","449","","","congruentHighestAssociate_4"
"","","","","","audio-keyboard-response","468","919374","0.0-20.0-0.429","null","stim/audio_stimuli/medicine.mp3","","test","stim/audio_stimuli/medicine.mp3","","","450","list","","congruentHighestAssociate_4"
"","","","","","audio-keyboard-response","469","920377","0.0-20.0-0.430","null","stim/audio_stimuli/hospital.mp3","","test","stim/audio_stimuli/hospital.mp3","","","451","list","","congruentHighestAssociate_4"
"","","","","","audio-keyboard-response","470","921379","0.0-20.0-0.431","null","stim/audio_stimuli/physician.mp3","","test","stim/audio_stimuli/physician.mp3","","","452","list","","congruentHighestAssociate_4"
"","","","","","audio-keyboard-response","471","922380","0.0-20.0-0.432","null","stim/audio_stimuli/nurse.mp3","","test","stim/audio_stimuli/nurse.mp3","0","incorrect","453","target","74","congruentHighestAssociate_4"
"","","","","","audio-keyboard-response","472","923382","0.0-20.0-0.433","null","stim/audio_stimuli/stethoscope.mp3","","test","stim/audio_stimuli/stethoscope.mp3","","","454","list","","congruentHighestAssociate_4"
"","","","","","audio-keyboard-response","473","924383","0.0-20.0-0.434","null","stim/audio_stimuli/clinic.mp3","","test","stim/audio_stimuli/clinic.mp3","","","455","list","","congruentHighestAssociate_4"
"","","","","","audio-keyboard-response","474","926385","0.0-20.0-0.435","null","stim/audio_tones/tone_1.mp3","","test","stim/audio_tones/tone_1.mp3","","","456","","","congruentHighestAssociate_4"
"","","","","","audio-keyboard-response","475","931388","0.0-20.0-0.436","null","stim/audio_stimuli/nurse.mp3","70","test","stim/audio_stimuli/nurse.mp3","","","457","target","74","congruentHighestAssociate_4"
"","","","","","audio-keyboard-response","476","931400","0.0-20.0-0.437","null","stim/audio_instructions/silence.mp3","","test","stim/audio_instructions/silence.mp3","","","458","","","congruentHighestAssociate_4"
"","","","","","audio-keyboard-response","477","935402","0.0-20.0-0.438","null","stim/audio_tones/tone_2.mp3","","test","stim/audio_tones/tone_2.mp3","","","459","","","congruentHighestAssociate_4"
"","","","","","audio-keyboard-response","478","935416","0.0-20.0-0.439","null","stim/audio_instructions/silence.mp3","","test","stim/audio_instructions/silence.mp3","","","460","","","congruentHighestAssociate_4"
"","","","","","audio-keyboard-response","479","936417","0.0-20.0-0.440","null","stim/audio_stimuli/pane.mp3","","test","stim/audio_stimuli/pane.mp3","","","461","list","","incongruentPrototype"
"","","","","","audio-keyboard-response","480","937418","0.0-20.0-0.441","null","stim/audio_stimuli/ledge.mp3","","test","stim/audio_stimuli/ledge.mp3","","","462","list","","incongruentPrototype"
"","","","","","audio-keyboard-response","481","938420","0.0-20.0-0.442","null","stim/audio_stimuli/house.mp3","","test","stim/audio_stimuli/house.mp3","","","463","list","","incongruentPrototype"
"","","","","","audio-keyboard-response","482","939423","0.0-20.0-0.443","null","stim/audio_stimuli/curtain.mp3","","test","stim/audio_stimuli/curtain.mp3","","","464","list","","incongruentPrototype"
"","","","","","audio-keyboard-response","483","940538","0.0-20.0-0.444","null","stim/audio_stimuli/view.mp3","","test","stim/audio_stimuli/view.mp3","","","465","list","","incongruentPrototype"
"","","","","","audio-keyboard-response","484","941540","0.0-20.0-0.445","null","stim/audio_stimuli/sash.mp3","","test","stim/audio_stimuli/sash.mp3","","","466","list","","incongruentPrototype"
"","","","","","audio-keyboard-response","485","943543","0.0-20.0-0.446","null","stim/audio_tones/tone_1.mp3","","test","stim/audio_tones/tone_1.mp3","","","467","","","incongruentPrototype"
"","","","","","audio-keyboard-response","486","948546","0.0-20.0-0.447","null","stim/audio_stimuli/fruit.mp3","74","test","stim/audio_stimuli/fruit.mp3","","","468","target","70","incongruentPrototype"
"","","","","","audio-keyboard-response","487","948558","0.0-20.0-0.448","null","stim/audio_instructions/silence.mp3","","test","stim/audio_instructions/silence.mp3","","","469","","","incongruentPrototype"
"","","","","","audio-keyboard-response","488","952560","0.0-20.0-0.449","null","stim/audio_tones/tone_2.mp3","","test","stim/audio_tones/tone_2.mp3","","","470","","","incongruentPrototype"
"","","","","","audio-keyboard-response","489","952571","0.0-20.0-0.450","null","stim/audio_instructions/silence.mp3","","test","stim/audio_instructions/silence.mp3","","","471","","","incongruentPrototype"
"","","","","","audio-keyboard-response","490","953572","0.0-20.0-0.451","null","stim/audio_stimuli/tall.mp3","","test","stim/audio_stimuli/tall.mp3","","","472","list","","congruentPrototype"
"","","","","","audio-keyboard-response","491","954573","0.0-20.0-0.452","null","stim/audio_stimuli/jump.mp3","","test","stim/audio_stimuli/jump.mp3","","","473","list","","congruentPrototype"
"","","","","","audio-keyboard-response","492","955575","0.0-20.0-0.453","null","stim/audio_stimuli/building.mp3","","test","stim/audio_stimuli/building.mp3","","","474","list","","congruentPrototype"
"","","","","","audio-keyboard-response","493","956577","0.0-20.0-0.454","null","stim/audio_stimuli/cliff.mp3","","test","stim/audio_stimuli/cliff.mp3","","","475","list","","congruentPrototype"
"","","","","","audio-keyboard-response","494","957578","0.0-20.0-0.455","null","stim/audio_stimuli/over.mp3","","test","stim/audio_stimuli/over.mp3","","","476","list","","congruentPrototype"
"","","","","","audio-keyboard-response","495","958580","0.0-20.0-0.456","null","stim/audio_stimuli/dive.mp3","","test","stim/audio_stimuli/dive.mp3","","","477","list","","congruentPrototype"
"","","","","","audio-keyboard-response","496","960582","0.0-20.0-0.457","null","stim/audio_tones/tone_1.mp3","","test","stim/audio_tones/tone_1.mp3","","","478","","","congruentPrototype"
