"success","timeout","failed_images","failed_audio","failed_video","trial_type","trial_index","time_elapsed","internal_node_id","rt","stimulus","response","test_part","stim","accuracy","confidence","index","word_position","correct_response"
"true","false","[]","[]","[]","preload","0","3356","0.0-0.0","","","","","","","","","",""
"","","","","","html-keyboard-response","1","10080","0.0-1.0","6723","<p> This experiment is presented in an auditory format</p><p>Please make sure that you increase the volume on your computer.</p><p>If you are blind and use a screenreader (e.g., JAWS, NVDA, VoiceOver), we highly recommend that you turn it off before starting the experiment.</p><p> <i> Press the spacebar to start hearing the instructions. </i> </p>"," ","","","","","","",""
"","","","","","audio-keyboard-response","2","25641","0.0-2.0","null","stim/audio_instructions/DRM_instructions_0.mp3","null","","","","","","",""
"","","","","","html-keyboard-response","3","28733","0.0-3.0","3091","stim/audio_instructions/silence.mp3"," ","","","","","","",""
"","","","","","audio-keyboard-response","4","46686","0.0-4.0","null","stim/audio_instructions/drm_instructions_1.mp3","null","","","","","","",""
"","","","","","audio-keyboard-response","5","47996","0.0-5.0","1307","stim/audio_instructions/silence.mp3"," ","","","","","","",""
"","","","","","audio-keyboard-response","6","52515","0.0-6.0","null","stim/audio_tones/tone_1.mp3","null","","","","","","",""
"","","","","","audio-keyboard-response","7","72984","0.0-7.0","null","stim/audio_instructions/drm_instructions_after_short_tone.mp3","null","","","","","","",""
"","","","","","audio-keyboard-response","8","75206","0.0-8.0","2219","stim/audio_instructions/silence.mp3","j","","","","","","",""
"","","","","","audio-keyboard-response","9","105570","0.0-9.0","null","stim/audio_instructions/drm_instructions_2.mp3","null","","","","","","",""
"","","","","","audio-keyboard-response","10","106896","0.0-10.0","","","","","","","","","",""
"","","","","","audio-keyboard-response","11","121916","0.0-11.0","14512","stim/audio_instructions/drm_instructions_3.mp3"," ","","","","","","",""
"","","","","","html-keyboard-response","12","122611","0.0-12.0","694","stim/audio_instructions/silence.mp3"," ","","","","","","",""
"","","","","","audio-keyboard-response","13","127132","0.0-13.0","null","stim/audio_tones/tone_2.mp3","null","","","","","","",""
"","","","","","audio-keyboard-response","14","135878","0.0-14.0","null","stim/audio_instructions/drm_instructions_5.mp3","null","","","","","","",""
"","","","","","html-keyboard-response","15","136063","0.0-15.0","184","stim/audio_instructions/silence.mp3"," ","","","","","","",""
"","","","","","audio-keyboard-response","16","139068","0.0-16.0-0.0","null","stim/audio_tones/tone_2.mp3","null","practice","stim/audio_tones/tone_2.mp3","","","1","",""
"","","","","","audio-keyboard-response","17","139671","0.0-16.0-0.1","null","stim/audio_instructions/silence.mp3","null","practice","stim/audio_instructions/silence.mp3","","","2","",""
"","","","","","audio-keyboard-response","18","140674","0.0-16.0-0.2","null","stim/audio_practice/atom.mp3","null","practice","stim/audio_practice/atom.mp3","","","3","list",""
"","","","","","audio-keyboard-response","19","141677","0.0-16.0-0.3","null","stim/audio_practice/molecule.mp3","null","practice","stim/audio_practice/molecule.mp3","","","4","list",""
"","","","","","audio-keyboard-response","20","142682","0.0-16.0-0.4","null","stim/audio_practice/bond.mp3","null","practice","stim/audio_practice/bond.mp3","","","5","list",""
"","","","","","audio-keyboard-response","21","143686","0.0-16.0-0.5","null","stim/audio_practice/gas.mp3","null","practice","stim/audio_practice/gas.mp3","","","6","list",""
"","","","","","audio-keyboard-response","22","144690","0.0-16.0-0.6","null","stim/audio_practice/electron.mp3","null","practice","stim/audio_practice/electron.mp3","","","7","list",""
"","","","","","audio-keyboard-response","23","145694","0.0-16.0-0.7","null","stim/audio_practice/oxygen.mp3","null","practice","stim/audio_practice/oxygen.mp3","","","8","list",""
"","","","","","audio-keyboard-response","24","146698","0.0-16.0-0.8","null","stim/audio_tones/tone_1.mp3","null","practice","stim/audio_tones/tone_1.mp3","","","9","responsePrompt",""
"","","","","","audio-keyboard-response","25","150472","0.0-16.0-0.9","","","","practice","stim/audio_practice/chemistry.mp3","false","100","10","target","74"
"","","","","","audio-keyboard-response","26","151906","0.0-16.0-0.10","null","stim/audio_practice/chemistry.mp3","null","practice","stim/audio_tones/tone_2.mp3","","","11","",""
"","","","","","audio-keyboard-response","27","152509","0.0-16.0-0.11","null","stim/audio_instructions/silence.mp3","null","practice","stim/audio_instructions/silence.mp3","","","12","",""
"","","","","","audio-keyboard-response","28","153510","0.0-16.0-0.12","null","stim/audio_practice/shark.mp3","null","practice","stim/audio_practice/shark.mp3","","","13","list",""
"","","","","","audio-keyboard-response","29","154513","0.0-16.0-0.13","null","stim/audio_practice/island.mp3","null","practice","stim/audio_practice/island.mp3","","","14","list",""
"","","","","","audio-keyboard-response","30","155516","0.0-16.0-0.14","null","stim/audio_practice/waves.mp3","null","practice","stim/audio_practice/waves.mp3","","","15","list",""
"","","","","","audio-keyboard-response","31","156519","0.0-16.0-0.15","null","stim/audio_practice/shrimp.mp3","null","practice","stim/audio_practice/shrimp.mp3","","","16","list",""
"","","","","","audio-keyboard-response","32","157522","0.0-16.0-0.16","null","stim/audio_practice/ocean.mp3","null","practice","stim/audio_practice/ocean.mp3","","","17","list",""
"","","","","","audio-keyboard-response","33","158525","0.0-16.0-0.17","null","stim/audio_practice/whale.mp3","null","practice","stim/audio_practice/whale.mp3","","","18","list",""
"","","","","","audio-keyboard-response","34","159529","0.0-16.0-0.18","null","stim/audio_tones/tone_1.mp3","null","practice","stim/audio_tones/tone_1.mp3","","","19","responsePrompt",""
"","","","","","audio-keyboard-response","35","162260","0.0-16.0-0.19","","","","practice","stim/audio_practice/ocean.mp3","false","100","20","target","74"
"","","","","","audio-keyboard-response","36","164534","0.0-17.0","null","stim/audio_practice/ocean.mp3","null","","","","","","",""
"","","","","","audio-keyboard-response","37","178187","0.0-18.0","null","stim/audio_instructions/drm_instructions_6.mp3","null","","","","","","",""
"","","","","","html-keyboard-response","38","179398","0.0-19.0","1210","stim/audio_instructions/silence.mp3"," ","","","","","","",""
"","","","","","audio-keyboard-response","39","180401","0.0-20.0-0.0","null","stim/audio_stimuli/tamer.mp3","null","test","stim/audio_stimuli/tamer.mp3","","","21","list",""
"","","","","","audio-keyboard-response","40","181405","0.0-20.0-0.1","null","stim/audio_stimuli/tiger.mp3","null","test","stim/audio_stimuli/tiger.mp3","","","22","list",""
"","","","","","audio-keyboard-response","41","182407","0.0-20.0-0.2","null","stim/audio_stimuli/mane.mp3","null","test","stim/audio_stimuli/mane.mp3","","","23","list",""
"","","","","","audio-keyboard-response","42","183410","0.0-20.0-0.3","null","stim/audio_stimuli/feline.mp3","null","test","stim/audio_stimuli/feline.mp3","","","24","list",""
"","","","","","audio-keyboard-response","43","184413","0.0-20.0-0.4","null","stim/audio_stimuli/fierce.mp3","null","test","stim/audio_stimuli/fierce.mp3","","","25","list",""
"","","","","","audio-keyboard-response","44","185415","0.0-20.0-0.5","null","stim/audio_stimuli/hunt.mp3","null","test","stim/audio_stimuli/hunt.mp3","","","26","list",""
"","","","","","audio-keyboard-response","45","187418","0.0-20.0-0.6","null","stim/audio_tones/tone_1.mp3","null","test","stim/audio_tones/tone_1.mp3","","","27","",""
"","","","","","audio-keyboard-response","46","190230","0.0-20.0-0.7","","","","test","stim/audio_stimuli/tiger.mp3","false","100","28","target","74"
"","","","","","audio-keyboard-response","47","190242","0.0-20.0-0.8","null","stim/audio_instructions/silence.mp3","null","test","stim/audio_instructions/silence.mp3","","","29","",""
"","","","","","audio-keyboard-response","48","194243","0.0-20.0-0.9","null","stim/audio_tones/tone_2.mp3","null","test","stim/audio_tones/tone_2.mp3","","","30","",""
"","","","","","audio-keyboard-response","49","194257","0.0-20.0-0.10","null","stim/audio_instructions/silence.mp3","null","test","stim/audio_instructions/silence.mp3","","","31","",""
"","","","","","audio-keyboard-response","50","195260","0.0-20.0-0.11","null","stim/audio_stimuli/jungle.mp3","null","test","stim/audio_stimuli/jungle.mp3","","","32","list",""
"","","","","","audio-keyboard-response","51","196264","0.0-20.0-0.12","null","stim/audio_stimuli/den.mp3","null","test","stim/audio_stimuli/den.mp3","","","33","list",""
"","","","","","audio-keyboard-response","52","197267","0.0-20.0-0.13","null","stim/audio_stimuli/africa.mp3","null","test","stim/audio_stimuli/africa.mp3","","","34","list",""
"","","","","","audio-keyboard-response","53","198270","0.0-20.0-0.14","null","stim/audio_stimuli/cage.mp3","null","test","stim/audio_stimuli/cage.mp3","","","35","list",""
"","","","","","audio-keyboard-response","54","199273","0.0-20.0-0.15","null","stim/audio_stimuli/roar.mp3","null","test","stim/audio_stimuli/roar.mp3","","","36","list",""
"","","","","","audio-keyboard-response","55","200277","0.0-20.0-0.16","null","stim/audio_stimuli/bears.mp3","null","test","stim/audio_stimuli/bears.mp3","","","37","list",""
"","","","","","audio-keyboard-response","56","202281","0.0-20.0-0.17","null","stim/audio_tones/tone_1.mp3","null","test","stim/audio_tones/tone_1.mp3","","","38","",""
"","","","","","audio-keyboard-response","57","206013","0.0-20.0-0.18","","","","test","stim/audio_stimuli/town.mp3","false","100","39","target","70"
"","","","","","audio-keyboard-response","58","206025","0.0-20.0-0.19","null","stim/audio_instructions/silence.mp3","null","test","stim/audio_instructions/silence.mp3","","","40","",""
"","","","","","audio-keyboard-response","59","210028","0.0-20.0-0.20","null","stim/audio_tones/tone_2.mp3","null","test","stim/audio_tones/tone_2.mp3","","","41","",""
"","","","","","audio-keyboard-response","60","210042","0.0-20.0-0.21","null","stim/audio_instructions/silence.mp3","null","test","stim/audio_instructions/silence.mp3","","","42","",""
"","","","","","audio-keyboard-response","61","211043","0.0-20.0-0.22","null","stim/audio_stimuli/eat.mp3","null","test","stim/audio_stimuli/eat.mp3","","","43","list",""
"","","","","","audio-keyboard-response","62","212047","0.0-20.0-0.23","null","stim/audio_stimuli/rye.mp3","null","test","stim/audio_stimuli/rye.mp3","","","44","list",""
"","","","","","audio-keyboard-response","63","213050","0.0-20.0-0.24","null","stim/audio_stimuli/milk.mp3","null","test","stim/audio_stimuli/milk.mp3","","","45","list",""
"","","","","","audio-keyboard-response","64","214053","0.0-20.0-0.25","null","stim/audio_stimuli/jelly.mp3","null","test","stim/audio_stimuli/jelly.mp3","","","46","list",""
"","","","","","audio-keyboard-response","65","215056","0.0-20.0-0.26","null","stim/audio_stimuli/crust.mp3","null","test","stim/audio_stimuli/crust.mp3","","","47","list",""
"","","","","","audio-keyboard-response","66","216059","0.0-20.0-0.27","null","stim/audio_stimuli/wine.mp3","null","test","stim/audio_stimuli/wine.mp3","","","48","list",""
"","","","","","audio-keyboard-response","67","218063","0.0-20.0-0.28","null","stim/audio_tones/tone_1.mp3","null","test","stim/audio_tones/tone_1.mp3","","","49","",""
"","","","","","audio-keyboard-response","68","221028","0.0-20.0-0.29","","","","test","stim/audio_stimuli/needle.mp3","false","100","50","target","70"
"","","","","","audio-keyboard-response","69","221040","0.0-20.0-0.30","null","stim/audio_instructions/silence.mp3","null","test","stim/audio_instructions/silence.mp3","","","51","",""
"","","","","","audio-keyboard-response","70","225042","0.0-20.0-0.31","null","stim/audio_tones/tone_2.mp3","null","test","stim/audio_tones/tone_2.mp3","","","52","",""
"","","","","","audio-keyboard-response","71","225055","0.0-20.0-0.32","null","stim/audio_instructions/silence.mp3","null","test","stim/audio_instructions/silence.mp3","","","53","",""
"","","","","","audio-keyboard-response","72","226058","0.0-20.0-0.33","null","stim/audio_stimuli/sandwich.mp3","null","test","stim/audio_stimuli/sandwich.mp3","","","54","list",""
"","","","","","audio-keyboard-response","73","227062","0.0-20.0-0.34","null","stim/audio_stimuli/jam.mp3","null","test","stim/audio_stimuli/jam.mp3","","","55","list",""
"","","","","","audio-keyboard-response","74","228066","0.0-20.0-0.35","null","stim/audio_stimuli/flour.mp3","null","test","stim/audio_stimuli/flour.mp3","","","56","list",""
"","","","","","audio-keyboard-response","75","229068","0.0-20.0-0.36","null","stim/audio_stimuli/dough.mp3","null","test","stim/audio_stimuli/dough.mp3","","","57","list",""
"","","","","","audio-keyboard-response","76","230070","0.0-20.0-0.37","null","stim/audio_stimuli/slice.mp3","null","test","stim/audio_stimuli/slice.mp3","","","58","list",""
"","","","","","audio-keyboard-response","77","231074","0.0-20.0-0.38","null","stim/audio_stimuli/loaf.mp3","null","test","stim/audio_stimuli/loaf.mp3","","","59","list",""
"","","","","","audio-keyboard-response","78","233077","0.0-20.0-0.39","null","stim/audio_tones/tone_1.mp3","null","test","stim/audio_tones/tone_1.mp3","","","60","",""
"","","","","","audio-keyboard-response","79","235891","0.0-20.0-0.40","","","","test","stim/audio_stimuli/bread.mp3","false","100","61","target","70"
"","","","","","audio-keyboard-response","80","235904","0.0-20.0-0.41","null","stim/audio_instructions/silence.mp3","null","test","stim/audio_instructions/silence.mp3","","","62","",""
"","","","","","audio-keyboard-response","81","239906","0.0-20.0-0.42","null","stim/audio_tones/tone_2.mp3","null","test","stim/audio_tones/tone_2.mp3","","","63","",""
"","","","","","audio-keyboard-response","82","239919","0.0-20.0-0.43","null","stim/audio_instructions/silence.mp3","null","test","stim/audio_instructions/silence.mp3","","","64","",""
"","","","","","audio-keyboard-response","83","240921","0.0-20.0-0.44","null","stim/audio_stimuli/tall.mp3","null","test","stim/audio_stimuli/tall.mp3","","","65","list",""
"","","","","","audio-keyboard-response","84","241923","0.0-20.0-0.45","null","stim/audio_stimuli/jump.mp3","null","test","stim/audio_stimuli/jump.mp3","","","66","list",""
"","","","","","audio-keyboard-response","85","242926","0.0-20.0-0.46","null","stim/audio_stimuli/building.mp3","null","test","stim/audio_stimuli/building.mp3","","","67","list",""
"","","","","","audio-keyboard-response","86","243929","0.0-20.0-0.47","null","stim/audio_stimuli/cliff.mp3","null","test","stim/audio_stimuli/cliff.mp3","","","68","list",""
"","","","","","audio-keyboard-response","87","244932","0.0-20.0-0.48","null","stim/audio_stimuli/over.mp3","null","test","stim/audio_stimuli/over.mp3","","","69","list",""
"","","","","","audio-keyboard-response","88","245935","0.0-20.0-0.49","null","stim/audio_stimuli/dive.mp3","null","test","stim/audio_stimuli/dive.mp3","","","70","list",""
"","","","","","audio-keyboard-response","89","247939","0.0-20.0-0.50","null","stim/audio_tones/tone_1.mp3","null","test","stim/audio_tones/tone_1.mp3","","","71","",""
"","","","","","audio-keyboard-response","90","250805","0.0-20.0-0.51","","","","test","stim/audio_stimuli/high.mp3","false","100","72","target","70"
"","","","","","audio-keyboard-response","91","250817","0.0-20.0-0.52","null","stim/audio_instructions/silence.mp3","null","test","stim/audio_instructions/silence.mp3","","","73","",""
"","","","","","audio-keyboard-response","92","254820","0.0-20.0-0.53","null","stim/audio_tones/tone_2.mp3","null","test","stim/audio_tones/tone_2.mp3","","","74","",""
"","","","","","audio-keyboard-response","93","254834","0.0-20.0-0.54","null","stim/audio_instructions/silence.mp3","null","test","stim/audio_instructions/silence.mp3","","","75","",""
"","","","","","audio-keyboard-response","94","255837","0.0-20.0-0.55","null","stim/audio_stimuli/up.mp3","null","test","stim/audio_stimuli/up.mp3","","","76","list",""
"","","","","","audio-keyboard-response","95","256840","0.0-20.0-0.56","null","stim/audio_stimuli/tower.mp3","null","test","stim/audio_stimuli/tower.mp3","","","77","list",""
"","","","","","audio-keyboard-response","96","257844","0.0-20.0-0.57","null","stim/audio_stimuli/above.mp3","null","test","stim/audio_stimuli/above.mp3","","","78","list",""
"","","","","","audio-keyboard-response","97","258847","0.0-20.0-0.58","null","stim/audio_stimuli/noon.mp3","null","test","stim/audio_stimuli/noon.mp3","","","79","list",""
"","","","","","audio-keyboard-response","98","259850","0.0-20.0-0.59","null","stim/audio_stimuli/sky.mp3","null","test","stim/audio_stimuli/sky.mp3","","","80","list",""
"","","","","","audio-keyboard-response","99","260854","0.0-20.0-0.60","null","stim/audio_stimuli/airplane.mp3","null","test","stim/audio_stimuli/airplane.mp3","","","81","list",""
"","","","","","audio-keyboard-response","100","262858","0.0-20.0-0.61","null","stim/audio_tones/tone_1.mp3","null","test","stim/audio_tones/tone_1.mp3","","","82","",""
"","","","","","audio-keyboard-response","101","265779","0.0-20.0-0.62","","","","test","stim/audio_stimuli/black.mp3","false","100","83","target","70"
"","","","","","audio-keyboard-response","102","265792","0.0-20.0-0.63","null","stim/audio_instructions/silence.mp3","null","test","stim/audio_instructions/silence.mp3","","","84","",""
"","","","","","audio-keyboard-response","103","269794","0.0-20.0-0.64","null","stim/audio_tones/tone_2.mp3","null","test","stim/audio_tones/tone_2.mp3","","","85","",""
"","","","","","audio-keyboard-response","104","269807","0.0-20.0-0.65","null","stim/audio_instructions/silence.mp3","null","test","stim/audio_instructions/silence.mp3","","","86","",""
"","","","","","audio-keyboard-response","105","270809","0.0-20.0-0.66","null","stim/audio_stimuli/capital.mp3","null","test","stim/audio_stimuli/capital.mp3","","","87","list",""
"","","","","","audio-keyboard-response","106","271812","0.0-20.0-0.67","null","stim/audio_stimuli/subway.mp3","null","test","stim/audio_stimuli/subway.mp3","","","88","list",""
"","","","","","audio-keyboard-response","107","272815","0.0-20.0-0.68","null","stim/audio_stimuli/newYork.mp3","null","test","stim/audio_stimuli/newYork.mp3","","","89","list",""
"","","","","","audio-keyboard-response","108","273819","0.0-20.0-0.69","null","stim/audio_stimuli/metropolis.mp3","null","test","stim/audio_stimuli/metropolis.mp3","","","90","list",""
"","","","","","audio-keyboard-response","109","274822","0.0-20.0-0.70","null","stim/audio_stimuli/chicago.mp3","null","test","stim/audio_stimuli/chicago.mp3","","","91","list",""
"","","","","","audio-keyboard-response","110","275825","0.0-20.0-0.71","null","stim/audio_stimuli/county.mp3","null","test","stim/audio_stimuli/county.mp3","","","92","list",""
"","","","","","audio-keyboard-response","111","277829","0.0-20.0-0.72","null","stim/audio_tones/tone_1.mp3","null","test","stim/audio_tones/tone_1.mp3","","","93","",""
"","","","","","audio-keyboard-response","112","282261","0.0-20.0-0.73","","","","test","stim/audio_stimuli/city.mp3","false","100","94","target","70"
"","","","","","audio-keyboard-response","113","282275","0.0-20.0-0.74","null","stim/audio_instructions/silence.mp3","null","test","stim/audio_instructions/silence.mp3","","","95","",""
"","","","","","audio-keyboard-response","114","286277","0.0-20.0-0.75","null","stim/audio_tones/tone_2.mp3","null","test","stim/audio_tones/tone_2.mp3","","","96","",""
"","","","","","audio-keyboard-response","115","286290","0.0-20.0-0.76","null","stim/audio_instructions/silence.mp3","null","test","stim/audio_instructions/silence.mp3","","","97","",""
"","","","","","audio-keyboard-response","116","287293","0.0-20.0-0.77","null","stim/audio_stimuli/leak.mp3","null","test","stim/audio_stimuli/leak.mp3","","","98","list",""
"","","","","","audio-keyboard-response","117","288296","0.0-20.0-0.78","null","stim/audio_stimuli/pencil.mp3","null","test","stim/audio_stimuli/pencil.mp3","false","0","99","target","74"
"","","","","","audio-keyboard-response","118","289300","0.0-20.0-0.79","null","stim/audio_stimuli/scribble.mp3","null","test","stim/audio_stimuli/scribble.mp3","","","100","list",""
"","","","","","audio-keyboard-response","119","290303","0.0-20.0-0.80","null","stim/audio_stimuli/cross.mp3","null","test","stim/audio_stimuli/cross.mp3","","","101","list",""
"","","","","","audio-keyboard-response","120","291306","0.0-20.0-0.81","null","stim/audio_stimuli/marker.mp3","null","test","stim/audio_stimuli/marker.mp3","","","102","list",""
"","","","","","audio-keyboard-response","121","292309","0.0-20.0-0.82","null","stim/audio_stimuli/cap.mp3","null","test","stim/audio_stimuli/cap.mp3","","","103","list",""
"","","","","","audio-keyboard-response","122","294313","0.0-20.0-0.83","null","stim/audio_tones/tone_1.mp3","null","test","stim/audio_tones/tone_1.mp3","","","104","",""
"","","","","","audio-keyboard-response","123","297077","0.0-20.0-0.84","","","","test","stim/audio_stimuli/pencil.mp3","false","100","105","target","74"
"","","","","","audio-keyboard-response","124","297091","0.0-20.0-0.85","null","stim/audio_instructions/silence.mp3","null","test","stim/audio_instructions/silence.mp3","","","106","",""
"","","","","","audio-keyboard-response","125","301093","0.0-20.0-0.86","null","stim/audio_tones/tone_2.mp3","null","test","stim/audio_tones/tone_2.mp3","","","107","",""
"","","","","","audio-keyboard-response","126","301107","0.0-20.0-0.87","null","stim/audio_instructions/silence.mp3","null","test","stim/audio_instructions/silence.mp3","","","108","",""
"","","","","","audio-keyboard-response","127","302109","0.0-20.0-0.88","null","stim/audio_stimuli/burglar.mp3","null","test","stim/audio_stimuli/burglar.mp3","","","109","list",""
"","","","","","audio-keyboard-response","128","303112","0.0-20.0-0.89","null","stim/audio_stimuli/cop.mp3","null","test","stim/audio_stimuli/cop.mp3","","","110","list",""
"","","","","","audio-keyboard-response","129","304115","0.0-20.0-0.90","null","stim/audio_stimuli/rob.mp3","null","test","stim/audio_stimuli/rob.mp3","","","111","list",""
"","","","","","audio-keyboard-response","130","305119","0.0-20.0-0.91","null","stim/audio_stimuli/gun.mp3","null","test","stim/audio_stimuli/gun.mp3","","","112","list",""
"","","","","","audio-keyboard-response","131","306122","0.0-20.0-0.92","null","stim/audio_stimuli/crime.mp3","null","test","stim/audio_stimuli/crime.mp3","","","113","list",""
"","","","","","audio-keyboard-response","132","307126","0.0-20.0-0.93","null","stim/audio_stimuli/bandit.mp3","null","test","stim/audio_stimuli/bandit.mp3","","","114","list",""
"","","","","","audio-keyboard-response","133","309130","0.0-20.0-0.94","null","stim/audio_tones/tone_1.mp3","null","test","stim/audio_tones/tone_1.mp3","","","115","",""
"","","","","","audio-keyboard-response","134","311674","0.0-20.0-0.95","","","","test","stim/audio_stimuli/thief.mp3","false","100","116","target","70"
"","","","","","audio-keyboard-response","135","311687","0.0-20.0-0.96","null","stim/audio_instructions/silence.mp3","null","test","stim/audio_instructions/silence.mp3","","","117","",""
"","","","","","audio-keyboard-response","136","315690","0.0-20.0-0.97","null","stim/audio_tones/tone_2.mp3","null","test","stim/audio_tones/tone_2.mp3","","","118","",""
"","","","","","audio-keyboard-response","137","315704","0.0-20.0-0.98","null","stim/audio_instructions/silence.mp3","null","test","stim/audio_instructions/silence.mp3","","","119","",""
"","","","","","audio-keyboard-response","138","316707","0.0-20.0-0.99","null","stim/audio_stimuli/state.mp3","null","test","stim/audio_stimuli/state.mp3","","","120","list",""
"","","","","","audio-keyboard-response","139","317710","0.0-20.0-0.100","null","stim/audio_stimuli/streets.mp3","null","test","stim/audio_stimuli/streets.mp3","","","121","list",""
"","","","","","audio-keyboard-response","140","318713","0.0-20.0-0.101","null","stim/audio_stimuli/country.mp3","null","test","stim/audio_stimuli/country.mp3","","","122","list",""
"","","","","","audio-keyboard-response","141","319716","0.0-20.0-0.102","null","stim/audio_stimuli/village.mp3","null","test","stim/audio_stimuli/village.mp3","","","123","list",""
"","","","","","audio-keyboard-response","142","320720","0.0-20.0-0.103","null","stim/audio_stimuli/big.mp3","null","test","stim/audio_stimuli/big.mp3","","","124","list",""
"","","","","","audio-keyboard-response","143","321723","0.0-20.0-0.104","null","stim/audio_stimuli/suburb.mp3","null","test","stim/audio_stimuli/suburb.mp3","","","125","list",""
"","","","","","audio-keyboard-response","144","323727","0.0-20.0-0.105","null","stim/audio_tones/tone_1.mp3","null","test","stim/audio_tones/tone_1.mp3","","","126","",""
"","","","","","audio-keyboard-response","145","328731","0.0-20.0-0.106","null","stim/audio_stimuli/river.mp3","null","test","stim/audio_stimuli/river.mp3","false","96.2","127","target","70"
"","","","","","audio-keyboard-response","146","328744","0.0-20.0-0.107","null","stim/audio_instructions/silence.mp3","null","test","stim/audio_instructions/silence.mp3","","","128","",""
"","","","","","audio-keyboard-response","147","332747","0.0-20.0-0.108","null","stim/audio_tones/tone_2.mp3","null","test","stim/audio_tones/tone_2.mp3","","","129","",""
"","","","","","audio-keyboard-response","148","332760","0.0-20.0-0.109","null","stim/audio_instructions/silence.mp3","null","test","stim/audio_instructions/silence.mp3","","","130","",""
"","","","","","audio-keyboard-response","149","333763","0.0-20.0-0.110","null","stim/audio_stimuli/summit.mp3","null","test","stim/audio_stimuli/summit.mp3","","","131","list",""
"","","","","","audio-keyboard-response","150","334765","0.0-20.0-0.111","null","stim/audio_stimuli/molehill.mp3","null","test","stim/audio_stimuli/molehill.mp3","","","132","list",""
"","","","","","audio-keyboard-response","151","335769","0.0-20.0-0.112","null","stim/audio_stimuli/plain.mp3","null","test","stim/audio_stimuli/plain.mp3","","","133","list",""
"","","","","","audio-keyboard-response","152","336773","0.0-20.0-0.113","null","stim/audio_stimuli/goat.mp3","null","test","stim/audio_stimuli/goat.mp3","","","134","list",""
"","","","","","audio-keyboard-response","153","337776","0.0-20.0-0.114","null","stim/audio_stimuli/climber.mp3","null","test","stim/audio_stimuli/climber.mp3","","","135","list",""
"","","","","","audio-keyboard-response","154","338779","0.0-20.0-0.115","null","stim/audio_stimuli/steep.mp3","null","test","stim/audio_stimuli/steep.mp3","","","136","list",""
"","","","","","audio-keyboard-response","155","340783","0.0-20.0-0.116","null","stim/audio_tones/tone_1.mp3","null","test","stim/audio_tones/tone_1.mp3","","","137","",""
"","","","","","audio-keyboard-response","156","343544","0.0-20.0-0.117","","","","test","stim/audio_stimuli/mountain.mp3","false","100","138","target","70"
"","","","","","audio-keyboard-response","157","343556","0.0-20.0-0.118","null","stim/audio_instructions/silence.mp3","null","test","stim/audio_instructions/silence.mp3","","","139","",""
"","","","","","audio-keyboard-response","158","347559","0.0-20.0-0.119","null","stim/audio_tones/tone_2.mp3","null","test","stim/audio_tones/tone_2.mp3","","","140","",""
"","","","","","audio-keyboard-response","159","347573","0.0-20.0-0.120","null","stim/audio_instructions/silence.mp3","null","test","stim/audio_instructions/silence.mp3","","","141","",""
"","","","","","audio-keyboard-response","160","348575","0.0-20.0-0.121","null","stim/audio_stimuli/rage.mp3","null","test","stim/audio_stimuli/rage.mp3","","","142","list",""
"","","","","","audio-keyboard-response","161","349578","0.0-20.0-0.122","null","stim/audio_stimuli/mad.mp3","null","test","stim/audio_stimuli/mad.mp3","false","0","143","target","74"
"","","","","","audio-keyboard-response","162","350582","0.0-20.0-0.123","null","stim/audio_stimuli/wrath.mp3","null","test","stim/audio_stimuli/wrath.mp3","","","144","list",""
"","","","","","audio-keyboard-response","163","351585","0.0-20.0-0.124","null","stim/audio_stimuli/fight.mp3","null","test","stim/audio_stimuli/fight.mp3","","","145","list",""
"","","","","","audio-keyboard-response","164","352588","0.0-20.0-0.125","null","stim/audio_stimuli/mean.mp3","null","test","stim/audio_stimuli/mean.mp3","","","146","list",""
"","","","","","audio-keyboard-response","165","353592","0.0-20.0-0.126","null","stim/audio_stimuli/emotion.mp3","null","test","stim/audio_stimuli/emotion.mp3","","","147","list",""
"","","","","","audio-keyboard-response","166","355595","0.0-20.0-0.127","null","stim/audio_tones/tone_1.mp3","null","test","stim/audio_tones/tone_1.mp3","","","148","",""
"","","","","","audio-keyboard-response","167","358258","0.0-20.0-0.128","","","","test","stim/audio_stimuli/mad.mp3","false","100","149","target","74"
"","","","","","audio-keyboard-response","168","358270","0.0-20.0-0.129","null","stim/audio_instructions/silence.mp3","null","test","stim/audio_instructions/silence.mp3","","","150","",""
"","","","","","audio-keyboard-response","169","362272","0.0-20.0-0.130","null","stim/audio_tones/tone_2.mp3","null","test","stim/audio_tones/tone_2.mp3","","","151","",""
"","","","","","audio-keyboard-response","170","362287","0.0-20.0-0.131","null","stim/audio_instructions/silence.mp3","null","test","stim/audio_instructions/silence.mp3","","","152","",""
"","","","","","audio-keyboard-response","171","363289","0.0-20.0-0.132","null","stim/audio_stimuli/refuse.mp3","null","test","stim/audio_stimuli/refuse.mp3","","","153","list",""
"","","","","","audio-keyboard-response","172","364293","0.0-20.0-0.133","null","stim/audio_stimuli/garbage.mp3","null","test","stim/audio_stimuli/garbage.mp3","false","0","154","target","74"
"","","","","","audio-keyboard-response","173","365296","0.0-20.0-0.134","null","stim/audio_stimuli/rubbish.mp3","null","test","stim/audio_stimuli/rubbish.mp3","","","155","list",""
"","","","","","audio-keyboard-response","174","366299","0.0-20.0-0.135","null","stim/audio_stimuli/scraps.mp3","null","test","stim/audio_stimuli/scraps.mp3","","","156","list",""
"","","","","","audio-keyboard-response","175","367302","0.0-20.0-0.136","null","stim/audio_stimuli/dump.mp3","null","test","stim/audio_stimuli/dump.mp3","","","157","list",""
"","","","","","audio-keyboard-response","176","368305","0.0-20.0-0.137","null","stim/audio_stimuli/debris.mp3","null","test","stim/audio_stimuli/debris.mp3","","","158","list",""
"","","","","","audio-keyboard-response","177","370309","0.0-20.0-0.138","null","stim/audio_tones/tone_1.mp3","null","test","stim/audio_tones/tone_1.mp3","","","159","",""
"","","","","","audio-keyboard-response","178","372793","0.0-20.0-0.139","","","","test","stim/audio_stimuli/garbage.mp3","false","100","160","target","74"
"","","","","","audio-keyboard-response","179","372806","0.0-20.0-0.140","null","stim/audio_instructions/silence.mp3","null","test","stim/audio_instructions/silence.mp3","","","161","",""
"","","","","","audio-keyboard-response","180","376808","0.0-20.0-0.141","null","stim/audio_tones/tone_2.mp3","null","test","stim/audio_tones/tone_2.mp3","","","162","",""
"","","","","","audio-keyboard-response","181","376821","0.0-20.0-0.142","null","stim/audio_instructions/silence.mp3","null","test","stim/audio_instructions/silence.mp3","","","163","",""
"","","","","","audio-keyboard-response","182","377824","0.0-20.0-0.143","null","stim/audio_stimuli/winter.mp3","null","test","stim/audio_stimuli/winter.mp3","","","164","list",""
"","","","","","audio-keyboard-response","183","378827","0.0-20.0-0.144","null","stim/audio_stimuli/wet.mp3","null","test","stim/audio_stimuli/wet.mp3","","","165","list",""
"","","","","","audio-keyboard-response","184","379830","0.0-20.0-0.145","null","stim/audio_stimuli/chilly.mp3","null","test","stim/audio_stimuli/chilly.mp3","","","166","list",""
"","","","","","audio-keyboard-response","185","380833","0.0-20.0-0.146","null","stim/audio_stimuli/weather.mp3","null","test","stim/audio_stimuli/weather.mp3","","","167","list",""
"","","","","","audio-keyboard-response","186","381836","0.0-20.0-0.147","null","stim/audio_stimuli/air.mp3","null","test","stim/audio_stimuli/air.mp3","","","168","list",""
"","","","","","audio-keyboard-response","187","382839","0.0-20.0-0.148","null","stim/audio_stimuli/arctic.mp3","null","test","stim/audio_stimuli/arctic.mp3","","","169","list",""
"","","","","","audio-keyboard-response","188","384842","0.0-20.0-0.149","null","stim/audio_tones/tone_1.mp3","null","test","stim/audio_tones/tone_1.mp3","","","170","",""
"","","","","","audio-keyboard-response","189","387660","0.0-20.0-0.150","","","","test","stim/audio_stimuli/cold.mp3","false","100","171","target","70"
"","","","","","audio-keyboard-response","190","387672","0.0-20.0-0.151","null","stim/audio_instructions/silence.mp3","null","test","stim/audio_instructions/silence.mp3","","","172","",""
"","","","","","audio-keyboard-response","191","391674","0.0-20.0-0.152","null","stim/audio_tones/tone_2.mp3","null","test","stim/audio_tones/tone_2.mp3","","","173","",""
"","","","","","audio-keyboard-response","192","391689","0.0-20.0-0.153","null","stim/audio_instructions/silence.mp3","null","test","stim/audio_instructions/silence.mp3","","","174","",""
"","","","","","audio-keyboard-response","193","392691","0.0-20.0-0.154","null","stim/audio_stimuli/crook.mp3","null","test","stim/audio_stimuli/crook.mp3","","","175","list",""
"","","","","","audio-keyboard-response","194","393694","0.0-20.0-0.155","null","stim/audio_stimuli/money.mp3","null","test","stim/audio_stimuli/money.mp3","","","176","list",""
"","","","","","audio-keyboard-response","195","394697","0.0-20.0-0.156","null","stim/audio_stimuli/bad.mp3","null","test","stim/audio_stimuli/bad.mp3","","","177","list",""
"","","","","","audio-keyboard-response","196","395699","0.0-20.0-0.157","null","stim/audio_stimuli/jail.mp3","null","test","stim/audio_stimuli/jail.mp3","","","178","list",""
"","","","","","audio-keyboard-response","197","396702","0.0-20.0-0.158","null","stim/audio_stimuli/villain.mp3","null","test","stim/audio_stimuli/villain.mp3","","","179","list",""
"","","","","","audio-keyboard-response","198","397705","0.0-20.0-0.159","null","stim/audio_stimuli/bank.mp3","null","test","stim/audio_stimuli/bank.mp3","","","180","list",""
"","","","","","audio-keyboard-response","199","399709","0.0-20.0-0.160","null","stim/audio_tones/tone_1.mp3","null","test","stim/audio_tones/tone_1.mp3","","","181","",""
"","","","","","audio-keyboard-response","200","402426","0.0-20.0-0.161","","","","test","stim/audio_stimuli/music.mp3","false","100","182","target","70"
"","","","","","audio-keyboard-response","201","402439","0.0-20.0-0.162","null","stim/audio_instructions/silence.mp3","null","test","stim/audio_instructions/silence.mp3","","","183","",""
"","","","","","audio-keyboard-response","202","406440","0.0-20.0-0.163","null","stim/audio_tones/tone_2.mp3","null","test","stim/audio_tones/tone_2.mp3","","","184","",""
"","","","","","audio-keyboard-response","203","406453","0.0-20.0-0.164","null","stim/audio_instructions/silence.mp3","null","test","stim/audio_instructions/silence.mp3","","","185","",""
"","","","","","audio-keyboard-response","204","407456","0.0-20.0-0.165","null","stim/audio_stimuli/prince.mp3","null","test","stim/audio_stimuli/prince.mp3","","","186","list",""
"","","","","","audio-keyboard-response","205","408458","0.0-20.0-0.166","null","stim/audio_stimuli/dictator.mp3","null","test","stim/audio_stimuli/dictator.mp3","","","187","list",""
"","","","","","audio-keyboard-response","206","409462","0.0-20.0-0.167","null","stim/audio_stimuli/throne.mp3","null","test","stim/audio_stimuli/throne.mp3","","","188","list",""
"","","","","","audio-keyboard-response","207","410466","0.0-20.0-0.168","null","stim/audio_stimuli/rule.mp3","null","test","stim/audio_stimuli/rule.mp3","","","189","list",""
"","","","","","audio-keyboard-response","208","411469","0.0-20.0-0.169","null","stim/audio_stimuli/monarch.mp3","null","test","stim/audio_stimuli/monarch.mp3","","","190","list",""
"","","","","","audio-keyboard-response","209","412473","0.0-20.0-0.170","null","stim/audio_stimuli/leader.mp3","null","test","stim/audio_stimuli/leader.mp3","","","191","list",""
"","","","","","audio-keyboard-response","210","414477","0.0-20.0-0.171","null","stim/audio_tones/tone_1.mp3","null","test","stim/audio_tones/tone_1.mp3","","","192","",""
"","","","","","audio-keyboard-response","211","417893","0.0-20.0-0.172","","","","test","stim/audio_stimuli/king.mp3","false","100","193","target","70"
"","","","","","audio-keyboard-response","212","417906","0.0-20.0-0.173","null","stim/audio_instructions/silence.mp3","null","test","stim/audio_instructions/silence.mp3","","","194","",""
"","","","","","audio-keyboard-response","213","421908","0.0-20.0-0.174","null","stim/audio_tones/tone_2.mp3","null","test","stim/audio_tones/tone_2.mp3","","","195","",""
"","","","","","audio-keyboard-response","214","421921","0.0-20.0-0.175","null","stim/audio_instructions/silence.mp3","null","test","stim/audio_instructions/silence.mp3","","","196","",""
"","","","","","audio-keyboard-response","215","422924","0.0-20.0-0.176","null","stim/audio_stimuli/fright.mp3","null","test","stim/audio_stimuli/fright.mp3","","","197","list",""
"","","","","","audio-keyboard-response","216","423927","0.0-20.0-0.177","null","stim/audio_stimuli/web.mp3","null","test","stim/audio_stimuli/web.mp3","false","0","198","target","74"
"","","","","","audio-keyboard-response","217","424931","0.0-20.0-0.178","null","stim/audio_stimuli/tarantula.mp3","null","test","stim/audio_stimuli/tarantula.mp3","","","199","list",""
"","","","","","audio-keyboard-response","218","425934","0.0-20.0-0.179","null","stim/audio_stimuli/bite.mp3","null","test","stim/audio_stimuli/bite.mp3","","","200","list",""
"","","","","","audio-keyboard-response","219","426938","0.0-20.0-0.180","null","stim/audio_stimuli/animal.mp3","null","test","stim/audio_stimuli/animal.mp3","","","201","list",""
"","","","","","audio-keyboard-response","220","427940","0.0-20.0-0.181","null","stim/audio_stimuli/feelers.mp3","null","test","stim/audio_stimuli/feelers.mp3","","","202","list",""
"","","","","","audio-keyboard-response","221","429944","0.0-20.0-0.182","null","stim/audio_tones/tone_1.mp3","null","test","stim/audio_tones/tone_1.mp3","","","203","",""
"","","","","","audio-keyboard-response","222","432701","0.0-20.0-0.183","","","","test","stim/audio_stimuli/web.mp3","false","100","204","target","74"
"","","","","","audio-keyboard-response","223","432714","0.0-20.0-0.184","null","stim/audio_instructions/silence.mp3","null","test","stim/audio_instructions/silence.mp3","","","205","",""
"","","","","","audio-keyboard-response","224","436717","0.0-20.0-0.185","null","stim/audio_tones/tone_2.mp3","null","test","stim/audio_tones/tone_2.mp3","","","206","",""
"","","","","","audio-keyboard-response","225","436730","0.0-20.0-0.186","null","stim/audio_instructions/silence.mp3","null","test","stim/audio_instructions/silence.mp3","","","207","",""
"","","","","","audio-keyboard-response","226","437732","0.0-20.0-0.187","null","stim/audio_stimuli/fountain.mp3","null","test","stim/audio_stimuli/fountain.mp3","","","208","list",""
"","","","","","audio-keyboard-response","227","438734","0.0-20.0-0.188","null","stim/audio_stimuli/quill.mp3","null","test","stim/audio_stimuli/quill.mp3","","","209","list",""
"","","","","","audio-keyboard-response","228","439738","0.0-20.0-0.189","null","stim/audio_stimuli/bic.mp3","null","test","stim/audio_stimuli/bic.mp3","","","210","list",""
"","","","","","audio-keyboard-response","229","440741","0.0-20.0-0.190","null","stim/audio_stimuli/crayon.mp3","null","test","stim/audio_stimuli/crayon.mp3","","","211","list",""
"","","","","","audio-keyboard-response","230","441745","0.0-20.0-0.191","null","stim/audio_stimuli/tip.mp3","null","test","stim/audio_stimuli/tip.mp3","","","212","list",""
"","","","","","audio-keyboard-response","231","442748","0.0-20.0-0.192","null","stim/audio_stimuli/red.mp3","null","test","stim/audio_stimuli/red.mp3","","","213","list",""
"","","","","","audio-keyboard-response","232","444752","0.0-20.0-0.193","null","stim/audio_tones/tone_1.mp3","null","test","stim/audio_tones/tone_1.mp3","","","214","",""
"","","","","","audio-keyboard-response","233","447134","0.0-20.0-0.194","","","","test","stim/audio_stimuli/low.mp3","false","100","215","target","70"
"","","","","","audio-keyboard-response","234","447147","0.0-20.0-0.195","null","stim/audio_instructions/silence.mp3","null","test","stim/audio_instructions/silence.mp3","","","216","",""
"","","","","","audio-keyboard-response","235","451149","0.0-20.0-0.196","null","stim/audio_tones/tone_2.mp3","null","test","stim/audio_tones/tone_2.mp3","","","217","",""
"","","","","","audio-keyboard-response","236","451163","0.0-20.0-0.197","null","stim/audio_instructions/silence.mp3","null","test","stim/audio_instructions/silence.mp3","","","218","",""
"","","","","","audio-keyboard-response","237","452166","0.0-20.0-0.198","null","stim/audio_stimuli/climb.mp3","null","test","stim/audio_stimuli/climb.mp3","","","219","list",""
"","","","","","audio-keyboard-response","238","453169","0.0-20.0-0.199","null","stim/audio_stimuli/top2.mp3","null","test","stim/audio_stimuli/top2.mp3","","","220","list",""
"","","","","","audio-keyboard-response","239","454171","0.0-20.0-0.200","null","stim/audio_stimuli/peak.mp3","null","test","stim/audio_stimuli/peak.mp3","","","221","list",""
"","","","","","audio-keyboard-response","240","455174","0.0-20.0-0.201","null","stim/audio_stimuli/glacier.mp3","null","test","stim/audio_stimuli/glacier.mp3","","","222","list",""
"","","","","","audio-keyboard-response","241","456177","0.0-20.0-0.202","null","stim/audio_stimuli/bike.mp3","null","test","stim/audio_stimuli/bike.mp3","","","223","list",""
"","","","","","audio-keyboard-response","242","457180","0.0-20.0-0.203","null","stim/audio_stimuli/range.mp3","null","test","stim/audio_stimuli/range.mp3","","","224","list",""
"","","","","","audio-keyboard-response","243","459183","0.0-20.0-0.204","null","stim/audio_tones/tone_1.mp3","null","test","stim/audio_tones/tone_1.mp3","","","225","",""
"","","","","","audio-keyboard-response","244","461755","0.0-20.0-0.205","","","","test","stim/audio_stimuli/flag.mp3","false","100","226","target","70"
"","","","","","audio-keyboard-response","245","461767","0.0-20.0-0.206","null","stim/audio_instructions/silence.mp3","null","test","stim/audio_instructions/silence.mp3","","","227","",""
"","","","","","audio-keyboard-response","246","465770","0.0-20.0-0.207","null","stim/audio_tones/tone_2.mp3","null","test","stim/audio_tones/tone_2.mp3","","","228","",""
"","","","","","audio-keyboard-response","247","465784","0.0-20.0-0.208","null","stim/audio_instructions/silence.mp3","null","test","stim/audio_instructions/silence.mp3","","","229","",""
"","","","","","audio-keyboard-response","248","466786","0.0-20.0-0.209","null","stim/audio_stimuli/rifle.mp3","null","test","stim/audio_stimuli/rifle.mp3","","","230","list",""
"","","","","","audio-keyboard-response","249","467789","0.0-20.0-0.210","null","stim/audio_stimuli/draft.mp3","null","test","stim/audio_stimuli/draft.mp3","","","231","list",""
"","","","","","audio-keyboard-response","250","468792","0.0-20.0-0.211","null","stim/audio_stimuli/navy.mp3","null","test","stim/audio_stimuli/navy.mp3","","","232","list",""
"","","","","","audio-keyboard-response","251","469796","0.0-20.0-0.212","null","stim/audio_stimuli/infantry.mp3","null","test","stim/audio_stimuli/infantry.mp3","","","233","list",""
"","","","","","audio-keyboard-response","252","470799","0.0-20.0-0.213","null","stim/audio_stimuli/war.mp3","null","test","stim/audio_stimuli/war.mp3","","","234","list",""
"","","","","","audio-keyboard-response","253","471802","0.0-20.0-0.214","null","stim/audio_stimuli/pilot.mp3","null","test","stim/audio_stimuli/pilot.mp3","","","235","list",""
"","","","","","audio-keyboard-response","254","473805","0.0-20.0-0.215","null","stim/audio_tones/tone_1.mp3","null","test","stim/audio_tones/tone_1.mp3","","","236","",""
"","","","","","audio-keyboard-response","255","476593","0.0-20.0-0.216","","","","test","stim/audio_stimuli/navy.mp3","false","100","237","target","74"
"","","","","","audio-keyboard-response","256","476605","0.0-20.0-0.217","null","stim/audio_instructions/silence.mp3","null","test","stim/audio_instructions/silence.mp3","","","238","",""
"","","","","","audio-keyboard-response","257","480606","0.0-20.0-0.218","null","stim/audio_tones/tone_2.mp3","null","test","stim/audio_tones/tone_2.mp3","","","239","",""
"","","","","","audio-keyboard-response","258","480620","0.0-20.0-0.219","null","stim/audio_instructions/silence.mp3","null","test","stim/audio_instructions/silence.mp3","","","240","",""
"","","","","","audio-keyboard-response","259","481623","0.0-20.0-0.220","null","stim/audio_stimuli/warm.mp3","null","test","stim/audio_stimuli/warm.mp3","","","241","list",""
"","","","","","audio-keyboard-response","260","482627","0.0-20.0-0.221","null","stim/audio_stimuli/ice.mp3","null","test","stim/audio_stimuli/ice.mp3","","","242","list",""
"","","","","","audio-keyboard-response","261","483630","0.0-20.0-0.222","null","stim/audio_stimuli/frigid.mp3","null","test","stim/audio_stimuli/frigid.mp3","","","243","list",""
"","","","","","audio-keyboard-response","262","484633","0.0-20.0-0.223","null","stim/audio_stimuli/heat.mp3","null","test","stim/audio_stimuli/heat.mp3","","","244","list",""
"","","","","","audio-keyboard-response","263","485636","0.0-20.0-0.224","null","stim/audio_stimuli/freeze.mp3","null","test","stim/audio_stimuli/freeze.mp3","","","245","list",""
"","","","","","audio-keyboard-response","264","486639","0.0-20.0-0.225","null","stim/audio_stimuli/shiver.mp3","null","test","stim/audio_stimuli/shiver.mp3","","","246","list",""
"","","","","","audio-keyboard-response","265","488643","0.0-20.0-0.226","null","stim/audio_tones/tone_1.mp3","null","test","stim/audio_tones/tone_1.mp3","","","247","",""
"","","","","","audio-keyboard-response","266","491192","0.0-20.0-0.227","","","","test","stim/audio_stimuli/chair.mp3","false","100","248","target","70"
"","","","","","audio-keyboard-response","267","491204","0.0-20.0-0.228","null","stim/audio_instructions/silence.mp3","null","test","stim/audio_instructions/silence.mp3","","","249","",""
"","","","","","audio-keyboard-response","268","495206","0.0-20.0-0.229","null","stim/audio_tones/tone_2.mp3","null","test","stim/audio_tones/tone_2.mp3","","","250","",""
"","","","","","audio-keyboard-response","269","495220","0.0-20.0-0.230","null","stim/audio_instructions/silence.mp3","null","test","stim/audio_instructions/silence.mp3","","","251","",""
"","","","","","audio-keyboard-response","270","496223","0.0-20.0-0.231","null","stim/audio_stimuli/billows.mp3","null","test","stim/audio_stimuli/billows.mp3","","","252","list",""
"","","","","","audio-keyboard-response","271","497226","0.0-20.0-0.232","null","stim/audio_stimuli/ashes.mp3","null","test","stim/audio_stimuli/ashes.mp3","","","253","list",""
"","","","","","audio-keyboard-response","272","498230","0.0-20.0-0.233","null","stim/audio_stimuli/cigarette.mp3","null","test","stim/audio_stimuli/cigarette.mp3","false","0","254","target","74"
"","","","","","audio-keyboard-response","273","499233","0.0-20.0-0.234","null","stim/audio_stimuli/tobacco.mp3","null","test","stim/audio_stimuli/tobacco.mp3","","","255","list",""
"","","","","","audio-keyboard-response","274","500236","0.0-20.0-0.235","null","stim/audio_stimuli/pipe.mp3","null","test","stim/audio_stimuli/pipe.mp3","","","256","list",""
"","","","","","audio-keyboard-response","275","501240","0.0-20.0-0.236","null","stim/audio_stimuli/flames.mp3","null","test","stim/audio_stimuli/flames.mp3","","","257","list",""
"","","","","","audio-keyboard-response","276","503243","0.0-20.0-0.237","null","stim/audio_tones/tone_1.mp3","null","test","stim/audio_tones/tone_1.mp3","","","258","",""
"","","","","","audio-keyboard-response","277","505926","0.0-20.0-0.238","","","","test","stim/audio_stimuli/cigarette.mp3","false","100","259","target","74"
"","","","","","audio-keyboard-response","278","505939","0.0-20.0-0.239","null","stim/audio_instructions/silence.mp3","null","test","stim/audio_instructions/silence.mp3","","","260","",""
"","","","","","audio-keyboard-response","279","509941","0.0-20.0-0.240","null","stim/audio_tones/tone_2.mp3","null","test","stim/audio_tones/tone_2.mp3","","","261","",""
"","","","","","audio-keyboard-response","280","509954","0.0-20.0-0.241","null","stim/audio_instructions/silence.mp3","null","test","stim/audio_instructions/silence.mp3","","","262","",""
"","","","","","audio-keyboard-response","281","510958","0.0-20.0-0.242","null","stim/audio_stimuli/hate.mp3","null","test","stim/audio_stimuli/hate.mp3","","","263","list",""
"","","","","","audio-keyboard-response","282","511961","0.0-20.0-0.243","null","stim/audio_stimuli/temper.mp3","null","test","stim/audio_stimuli/temper.mp3","","","264","list",""
"","","","","","audio-keyboard-response","283","512964","0.0-20.0-0.244","null","stim/audio_stimuli/ire.mp3","null","test","stim/audio_stimuli/ire.mp3","","","265","list",""
"","","","","","audio-keyboard-response","284","513968","0.0-20.0-0.245","null","stim/audio_stimuli/happy.mp3","null","test","stim/audio_stimuli/happy.mp3","","","266","list",""
"","","","","","audio-keyboard-response","285","514971","0.0-20.0-0.246","null","stim/audio_stimuli/hatred.mp3","null","test","stim/audio_stimuli/hatred.mp3","","","267","list",""
"","","","","","audio-keyboard-response","286","515974","0.0-20.0-0.247","null","stim/audio_stimuli/calm.mp3","null","test","stim/audio_stimuli/calm.mp3","","","268","list",""
"","","","","","audio-keyboard-response","287","517977","0.0-20.0-0.248","null","stim/audio_tones/tone_1.mp3","null","test","stim/audio_tones/tone_1.mp3","","","269","",""
"","","","","","audio-keyboard-response","288","520556","0.0-20.0-0.249","","","","test","stim/audio_stimuli/town.mp3","false","100","270","target","70"
"","","","","","audio-keyboard-response","289","520569","0.0-20.0-0.250","null","stim/audio_instructions/silence.mp3","null","test","stim/audio_instructions/silence.mp3","","","271","",""
"","","","","","audio-keyboard-response","290","524571","0.0-20.0-0.251","null","stim/audio_tones/tone_2.mp3","null","test","stim/audio_tones/tone_2.mp3","","","272","",""
"","","","","","audio-keyboard-response","291","524585","0.0-20.0-0.252","null","stim/audio_instructions/silence.mp3","null","test","stim/audio_instructions/silence.mp3","","","273","",""
"","","","","","audio-keyboard-response","292","525588","0.0-20.0-0.253","null","stim/audio_stimuli/can.mp3","null","test","stim/audio_stimuli/can.mp3","","","274","list",""
"","","","","","audio-keyboard-response","293","526592","0.0-20.0-0.254","null","stim/audio_stimuli/sewage.mp3","null","test","stim/audio_stimuli/sewage.mp3","","","275","list",""
"","","","","","audio-keyboard-response","294","527596","0.0-20.0-0.255","null","stim/audio_stimuli/junk.mp3","null","test","stim/audio_stimuli/junk.mp3","","","276","list",""
"","","","","","audio-keyboard-response","295","528599","0.0-20.0-0.256","null","stim/audio_stimuli/sweep.mp3","null","test","stim/audio_stimuli/sweep.mp3","","","277","list",""
"","","","","","audio-keyboard-response","296","529602","0.0-20.0-0.257","null","stim/audio_stimuli/pile.mp3","null","test","stim/audio_stimuli/pile.mp3","","","278","list",""
"","","","","","audio-keyboard-response","297","530605","0.0-20.0-0.258","null","stim/audio_stimuli/landfill.mp3","null","test","stim/audio_stimuli/landfill.mp3","","","279","list",""
"","","","","","audio-keyboard-response","298","532608","0.0-20.0-0.259","null","stim/audio_tones/tone_1.mp3","null","test","stim/audio_tones/tone_1.mp3","","","280","",""
"","","","","","audio-keyboard-response","299","535425","0.0-20.0-0.260","","","","test","stim/audio_stimuli/steal.mp3","false","100","281","target","70"
"","","","","","audio-keyboard-response","300","535437","0.0-20.0-0.261","null","stim/audio_instructions/silence.mp3","null","test","stim/audio_instructions/silence.mp3","","","282","",""
"","","","","","audio-keyboard-response","301","539439","0.0-20.0-0.262","null","stim/audio_tones/tone_2.mp3","null","test","stim/audio_tones/tone_2.mp3","","","283","",""
"","","","","","audio-keyboard-response","302","539453","0.0-20.0-0.263","null","stim/audio_instructions/silence.mp3","null","test","stim/audio_instructions/silence.mp3","","","284","",""
"","","","","","audio-keyboard-response","303","540457","0.0-20.0-0.264","null","stim/audio_stimuli/plush.mp3","null","test","stim/audio_stimuli/plush.mp3","","","285","list",""
"","","","","","audio-keyboard-response","304","541460","0.0-20.0-0.265","null","stim/audio_stimuli/cotton.mp3","null","test","stim/audio_stimuli/cotton.mp3","","","286","list",""
"","","","","","audio-keyboard-response","305","542463","0.0-20.0-0.266","null","stim/audio_stimuli/hard.mp3","null","test","stim/audio_stimuli/hard.mp3","false","0","287","target","74"
"","","","","","audio-keyboard-response","306","543466","0.0-20.0-0.267","null","stim/audio_stimuli/feather.mp3","null","test","stim/audio_stimuli/feather.mp3","","","288","list",""
"","","","","","audio-keyboard-response","307","544469","0.0-20.0-0.268","null","stim/audio_stimuli/downy.mp3","null","test","stim/audio_stimuli/downy.mp3","","","289","list",""
"","","","","","audio-keyboard-response","308","545473","0.0-20.0-0.269","null","stim/audio_stimuli/skin.mp3","null","test","stim/audio_stimuli/skin.mp3","","","290","list",""
"","","","","","audio-keyboard-response","309","547477","0.0-20.0-0.270","null","stim/audio_tones/tone_1.mp3","null","test","stim/audio_tones/tone_1.mp3","","","291","",""
"","","","","","audio-keyboard-response","310","550418","0.0-20.0-0.271","","","","test","stim/audio_stimuli/hard.mp3","false","100","292","target","74"
"","","","","","audio-keyboard-response","311","550431","0.0-20.0-0.272","null","stim/audio_instructions/silence.mp3","null","test","stim/audio_instructions/silence.mp3","","","293","",""
"","","","","","audio-keyboard-response","312","554434","0.0-20.0-0.273","null","stim/audio_tones/tone_2.mp3","null","test","stim/audio_tones/tone_2.mp3","","","294","",""
"","","","","","audio-keyboard-response","313","554448","0.0-20.0-0.274","null","stim/audio_instructions/silence.mp3","null","test","stim/audio_instructions/silence.mp3","","","295","",""
"","","","","","audio-keyboard-response","314","555451","0.0-20.0-0.275","null","stim/audio_stimuli/lady.mp3","null","test","stim/audio_stimuli/lady.mp3","","","296","list",""
"","","","","","audio-keyboard-response","315","556453","0.0-20.0-0.276","null","stim/audio_stimuli/male.mp3","null","test","stim/audio_stimuli/male.mp3","","","297","list",""
"","","","","","audio-keyboard-response","316","557457","0.0-20.0-0.277","null","stim/audio_stimuli/woman.mp3","null","test","stim/audio_stimuli/woman.mp3","false","0","298","target","74"
"","","","","","audio-keyboard-response","317","558460","0.0-20.0-0.278","null","stim/audio_stimuli/beard.mp3","null","test","stim/audio_stimuli/beard.mp3","","","299","list",""
"","","","","","audio-keyboard-response","318","559463","0.0-20.0-0.279","null","stim/audio_stimuli/handsome.mp3","null","test","stim/audio_stimuli/handsome.mp3","","","300","list",""
"","","","","","audio-keyboard-response","319","560467","0.0-20.0-0.280","null","stim/audio_stimuli/suit.mp3","null","test","stim/audio_stimuli/suit.mp3","","","301","list",""
"","","","","","audio-keyboard-response","320","562472","0.0-20.0-0.281","null","stim/audio_tones/tone_1.mp3","null","test","stim/audio_tones/tone_1.mp3","","","302","",""
"","","","","","audio-keyboard-response","321","565125","0.0-20.0-0.282","","","","test","stim/audio_stimuli/woman.mp3","false","100","303","target","74"
"","","","","","audio-keyboard-response","322","565137","0.0-20.0-0.283","null","stim/audio_instructions/silence.mp3","null","test","stim/audio_instructions/silence.mp3","","","304","",""
"","","","","","audio-keyboard-response","323","569139","0.0-20.0-0.284","null","stim/audio_tones/tone_2.mp3","null","test","stim/audio_tones/tone_2.mp3","","","305","",""
"","","","","","audio-keyboard-response","324","569152","0.0-20.0-0.285","null","stim/audio_instructions/silence.mp3","null","test","stim/audio_instructions/silence.mp3","","","306","",""
"","","","","","audio-keyboard-response","325","570155","0.0-20.0-0.286","null","stim/audio_stimuli/automobile.mp3","null","test","stim/audio_stimuli/automobile.mp3","","","307","list",""
"","","","","","audio-keyboard-response","326","571159","0.0-20.0-0.287","null","stim/audio_stimuli/drive.mp3","null","test","stim/audio_stimuli/drive.mp3","","","308","list",""
"","","","","","audio-keyboard-response","327","572162","0.0-20.0-0.288","null","stim/audio_stimuli/ford.mp3","null","test","stim/audio_stimuli/ford.mp3","","","309","list",""
"","","","","","audio-keyboard-response","328","573165","0.0-20.0-0.289","null","stim/audio_stimuli/truck.mp3","null","test","stim/audio_stimuli/truck.mp3","","","310","list",""
"","","","","","audio-keyboard-response","329","574168","0.0-20.0-0.290","null","stim/audio_stimuli/highway.mp3","null","test","stim/audio_stimuli/highway.mp3","","","311","list",""
"","","","","","audio-keyboard-response","330","575171","0.0-20.0-0.291","null","stim/audio_stimuli/van.mp3","null","test","stim/audio_stimuli/van.mp3","","","312","list",""
"","","","","","audio-keyboard-response","331","577174","0.0-20.0-0.292","null","stim/audio_tones/tone_1.mp3","null","test","stim/audio_tones/tone_1.mp3","","","313","",""
"","","","","","audio-keyboard-response","332","579921","0.0-20.0-0.293","","","","test","stim/audio_stimuli/truck.mp3","false","100","314","target","74"
"","","","","","audio-keyboard-response","333","579933","0.0-20.0-0.294","null","stim/audio_instructions/silence.mp3","null","test","stim/audio_instructions/silence.mp3","","","315","",""
"","","","","","audio-keyboard-response","334","583934","0.0-20.0-0.295","null","stim/audio_tones/tone_2.mp3","null","test","stim/audio_tones/tone_2.mp3","","","316","",""
"","","","","","audio-keyboard-response","335","583948","0.0-20.0-0.296","null","stim/audio_instructions/silence.mp3","null","test","stim/audio_instructions/silence.mp3","","","317","",""
"","","","","","audio-keyboard-response","336","584951","0.0-20.0-0.297","null","stim/audio_stimuli/big2.mp3","null","test","stim/audio_stimuli/big2.mp3","","","318","list",""
"","","","","","audio-keyboard-response","337","585954","0.0-20.0-0.298","null","stim/audio_stimuli/fly.mp3 ","null","test","stim/audio_stimuli/fly.mp3 ","","","319","list",""
"","","","","","audio-keyboard-response","338","586957","0.0-20.0-0.299","null","stim/audio_stimuli/crawl.mp3","null","test","stim/audio_stimuli/crawl.mp3","","","320","list",""
"","","","","","audio-keyboard-response","339","587960","0.0-20.0-0.300","null","stim/audio_stimuli/poison.mp3","null","test","stim/audio_stimuli/poison.mp3","","","321","list",""
"","","","","","audio-keyboard-response","340","588962","0.0-20.0-0.301","null","stim/audio_stimuli/creepy.mp3","null","test","stim/audio_stimuli/creepy.mp3","","","322","list",""
"","","","","","audio-keyboard-response","341","589966","0.0-20.0-0.302","null","stim/audio_stimuli/ugly.mp3","null","test","stim/audio_stimuli/ugly.mp3","","","323","list",""
"","","","","","audio-keyboard-response","342","591970","0.0-20.0-0.303","null","stim/audio_tones/tone_1.mp3","null","test","stim/audio_tones/tone_1.mp3","","","324","",""
"","","","","","audio-keyboard-response","343","595860","0.0-20.0-0.304","","","","test","stim/audio_stimuli/hill.mp3","false","100","325","target","70"
"","","","","","audio-keyboard-response","344","595871","0.0-20.0-0.305","null","stim/audio_instructions/silence.mp3","null","test","stim/audio_instructions/silence.mp3","","","326","",""
"","","","","","audio-keyboard-response","345","599873","0.0-20.0-0.306","null","stim/audio_tones/tone_2.mp3","null","test","stim/audio_tones/tone_2.mp3","","","327","",""
"","","","","","audio-keyboard-response","346","599887","0.0-20.0-0.307","null","stim/audio_instructions/silence.mp3","null","test","stim/audio_instructions/silence.mp3","","","328","",""
"","","","","","audio-keyboard-response","347","600889","0.0-20.0-0.308","null","stim/audio_stimuli/unitedStates.mp3","null","test","stim/audio_stimuli/unitedStates.mp3","","","329","list",""
"","","","","","audio-keyboard-response","348","601893","0.0-20.0-0.309","null","stim/audio_stimuli/airForce.mp3","null","test","stim/audio_stimuli/airForce.mp3","","","330","list",""
"","","","","","audio-keyboard-response","349","602896","0.0-20.0-0.310","null","stim/audio_stimuli/military.mp3","null","test","stim/audio_stimuli/military.mp3","","","331","list",""
"","","","","","audio-keyboard-response","350","603899","0.0-20.0-0.311","null","stim/audio_stimuli/march.mp3","null","test","stim/audio_stimuli/march.mp3","","","332","list",""
"","","","","","audio-keyboard-response","351","604903","0.0-20.0-0.312","null","stim/audio_stimuli/captain.mp3","null","test","stim/audio_stimuli/captain.mp3","","","333","list",""
"","","","","","audio-keyboard-response","352","605906","0.0-20.0-0.313","null","stim/audio_stimuli/uniform.mp3","null","test","stim/audio_stimuli/uniform.mp3","","","334","list",""
"","","","","","audio-keyboard-response","353","607908","0.0-20.0-0.314","null","stim/audio_tones/tone_1.mp3","null","test","stim/audio_tones/tone_1.mp3","","","335","",""
"","","","","","audio-keyboard-response","354","610558","0.0-20.0-0.315","","","","test","stim/audio_stimuli/hot.mp3","false","100","336","target","70"
"","","","","","audio-keyboard-response","355","610571","0.0-20.0-0.316","null","stim/audio_instructions/silence.mp3","null","test","stim/audio_instructions/silence.mp3","","","337","",""
"","","","","","audio-keyboard-response","356","614572","0.0-20.0-0.317","null","stim/audio_tones/tone_2.mp3","null","test","stim/audio_tones/tone_2.mp3","","","338","",""
"","","","","","audio-keyboard-response","357","614587","0.0-20.0-0.318","null","stim/audio_instructions/silence.mp3","null","test","stim/audio_instructions/silence.mp3","","","339","",""
"","","","","","audio-keyboard-response","358","615589","0.0-20.0-0.319","null","stim/audio_stimuli/blaze.mp3","null","test","stim/audio_stimuli/blaze.mp3","","","340","list",""
"","","","","","audio-keyboard-response","359","616592","0.0-20.0-0.320","null","stim/audio_stimuli/pollution.mp3","null","test","stim/audio_stimuli/pollution.mp3","","","341","list",""
"","","","","","audio-keyboard-response","360","617596","0.0-20.0-0.321","null","stim/audio_stimuli/cigar.mp3","null","test","stim/audio_stimuli/cigar.mp3","","","342","list",""
"","","","","","audio-keyboard-response","361","618600","0.0-20.0-0.322","null","stim/audio_stimuli/fire.mp3","null","test","stim/audio_stimuli/fire.mp3","","","343","list",""
"","","","","","audio-keyboard-response","362","619604","0.0-20.0-0.323","null","stim/audio_stimuli/stink.mp3","null","test","stim/audio_stimuli/stink.mp3","","","344","list",""
"","","","","","audio-keyboard-response","363","620607","0.0-20.0-0.324","null","stim/audio_stimuli/lungs.mp3","null","test","stim/audio_stimuli/lungs.mp3","","","345","list",""
"","","","","","audio-keyboard-response","364","622611","0.0-20.0-0.325","null","stim/audio_tones/tone_1.mp3","null","test","stim/audio_tones/tone_1.mp3","","","346","",""
"","","","","","audio-keyboard-response","365","625174","0.0-20.0-0.326","","","","test","stim/audio_stimuli/queen.mp3","false","100","347","target","70"
"","","","","","audio-keyboard-response","366","625187","0.0-20.0-0.327","null","stim/audio_instructions/silence.mp3","null","test","stim/audio_instructions/silence.mp3","","","348","",""
"","","","","","audio-keyboard-response","367","629189","0.0-20.0-0.328","null","stim/audio_tones/tone_2.mp3","null","test","stim/audio_tones/tone_2.mp3","","","349","",""
"","","","","","audio-keyboard-response","368","629205","0.0-20.0-0.329","null","stim/audio_instructions/silence.mp3","null","test","stim/audio_instructions/silence.mp3","","","350","",""
"","","","","","audio-keyboard-response","369","630207","0.0-20.0-0.330","null","stim/audio_stimuli/kiwi.mp3","null","test","stim/audio_stimuli/kiwi.mp3","","","351","list",""
"","","","","","audio-keyboard-response","370","631209","0.0-20.0-0.331","null","stim/audio_stimuli/ripe.mp3","null","test","stim/audio_stimuli/ripe.mp3","","","352","list",""
"","","","","","audio-keyboard-response","371","632213","0.0-20.0-0.332","null","stim/audio_stimuli/banana.mp3","null","test","stim/audio_stimuli/banana.mp3","","","353","list",""
"","","","","","audio-keyboard-response","372","633217","0.0-20.0-0.333","null","stim/audio_stimuli/cherry.mp3","null","test","stim/audio_stimuli/cherry.mp3","","","354","list",""
"","","","","","audio-keyboard-response","373","634220","0.0-20.0-0.334","null","stim/audio_stimuli/juice.mp3","null","test","stim/audio_stimuli/juice.mp3","","","355","list",""
"","","","","","audio-keyboard-response","374","635224","0.0-20.0-0.335","null","stim/audio_stimuli/bowl.mp3","null","test","stim/audio_stimuli/bowl.mp3","","","356","list",""
"","","","","","audio-keyboard-response","375","637228","0.0-20.0-0.336","null","stim/audio_tones/tone_1.mp3","null","test","stim/audio_tones/tone_1.mp3","","","357","",""
"","","","","","audio-keyboard-response","376","642232","0.0-20.0-0.337","null","stim/audio_stimuli/fruit.mp3","null","test","stim/audio_stimuli/fruit.mp3","false","7.4","358","target","70"
"","","","","","audio-keyboard-response","377","642244","0.0-20.0-0.338","null","stim/audio_instructions/silence.mp3","null","test","stim/audio_instructions/silence.mp3","","","359","",""
"","","","","","audio-keyboard-response","378","646247","0.0-20.0-0.339","null","stim/audio_tones/tone_2.mp3","null","test","stim/audio_tones/tone_2.mp3","","","360","",""
"","","","","","audio-keyboard-response","379","646261","0.0-20.0-0.340","null","stim/audio_instructions/silence.mp3","null","test","stim/audio_instructions/silence.mp3","","","361","",""
"","","","","","audio-keyboard-response","380","647264","0.0-20.0-0.341","null","stim/audio_stimuli/crown.mp3","null","test","stim/audio_stimuli/crown.mp3","","","362","list",""
"","","","","","audio-keyboard-response","381","648267","0.0-20.0-0.342","null","stim/audio_stimuli/george.mp3","null","test","stim/audio_stimuli/george.mp3","","","363","list",""
"","","","","","audio-keyboard-response","382","649270","0.0-20.0-0.343","null","stim/audio_stimuli/palace.mp3","null","test","stim/audio_stimuli/palace.mp3","","","364","list",""
"","","","","","audio-keyboard-response","383","650274","0.0-20.0-0.344","null","stim/audio_stimuli/chess.mp3","null","test","stim/audio_stimuli/chess.mp3","","","365","list",""
"","","","","","audio-keyboard-response","384","651277","0.0-20.0-0.345","null","stim/audio_stimuli/subjects.mp3","null","test","stim/audio_stimuli/subjects.mp3","","","366","list",""
"","","","","","audio-keyboard-response","385","652280","0.0-20.0-0.346","null","stim/audio_stimuli/royal.mp3","null","test","stim/audio_stimuli/royal.mp3","","","367","list",""
"","","","","","audio-keyboard-response","386","654284","0.0-20.0-0.347","null","stim/audio_tones/tone_1.mp3","null","test","stim/audio_tones/tone_1.mp3","","","368","",""
"","","","","","audio-keyboard-response","387","656695","0.0-20.0-0.348","","","","test","stim/audio_stimuli/doctor.mp3","false","100","369","target","70"
"","","","","","audio-keyboard-response","388","656707","0.0-20.0-0.349","null","stim/audio_instructions/silence.mp3","null","test","stim/audio_instructions/silence.mp3","","","370","",""
"","","","","","audio-keyboard-response","389","660709","0.0-20.0-0.350","null","stim/audio_tones/tone_2.mp3","null","test","stim/audio_tones/tone_2.mp3","","","371","",""
"","","","","","audio-keyboard-response","390","660724","0.0-20.0-0.351","null","stim/audio_instructions/silence.mp3","null","test","stim/audio_instructions/silence.mp3","","","372","",""
"","","","","","audio-keyboard-response","391","661726","0.0-20.0-0.352","null","stim/audio_stimuli/pillow.mp3","null","test","stim/audio_stimuli/pillow.mp3","","","373","list",""
"","","","","","audio-keyboard-response","392","662729","0.0-20.0-0.353","null","stim/audio_stimuli/loud.mp3","null","test","stim/audio_stimuli/loud.mp3","","","374","list",""
"","","","","","audio-keyboard-response","393","663732","0.0-20.0-0.354","null","stim/audio_stimuli/fur.mp3","null","test","stim/audio_stimuli/fur.mp3","","","375","list",""
"","","","","","audio-keyboard-response","394","664736","0.0-20.0-0.355","null","stim/audio_stimuli/fluffy.mp3","null","test","stim/audio_stimuli/fluffy.mp3","","","376","list",""
"","","","","","audio-keyboard-response","395","665738","0.0-20.0-0.356","null","stim/audio_stimuli/furry.mp3","null","test","stim/audio_stimuli/furry.mp3","","","377","list",""
"","","","","","audio-keyboard-response","396","666741","0.0-20.0-0.357","null","stim/audio_stimuli/kitten.mp3","null","test","stim/audio_stimuli/kitten.mp3","","","378","list",""
"","","","","","audio-keyboard-response","397","668745","0.0-20.0-0.358","null","stim/audio_tones/tone_1.mp3","null","test","stim/audio_tones/tone_1.mp3","","","379","",""
"","","","","","audio-keyboard-response","398","671007","0.0-20.0-0.359","","","","test","stim/audio_stimuli/apple.mp3","false","100","380","target","70"
"","","","","","audio-keyboard-response","399","671019","0.0-20.0-0.360","null","stim/audio_instructions/silence.mp3","null","test","stim/audio_instructions/silence.mp3","","","381","",""
"","","","","","audio-keyboard-response","400","675021","0.0-20.0-0.361","null","stim/audio_tones/tone_2.mp3","null","test","stim/audio_tones/tone_2.mp3","","","382","",""
"","","","","","audio-keyboard-response","401","675035","0.0-20.0-0.362","null","stim/audio_instructions/silence.mp3","null","test","stim/audio_instructions/silence.mp3","","","383","",""
"","","","","","audio-keyboard-response","402","676037","0.0-20.0-0.363","null","stim/audio_stimuli/aroma.mp3","null","test","stim/audio_stimuli/aroma.mp3","","","384","list",""
"","","","","","audio-keyboard-response","403","677040","0.0-20.0-0.364","null","stim/audio_stimuli/see.mp3","null","test","stim/audio_stimuli/see.mp3","","","385","list",""
"","","","","","audio-keyboard-response","404","678043","0.0-20.0-0.365","null","stim/audio_stimuli/whiff.mp3","null","test","stim/audio_stimuli/whiff.mp3","","","386","list",""
"","","","","","audio-keyboard-response","405","679047","0.0-20.0-0.366","null","stim/audio_stimuli/reek.mp3","null","test","stim/audio_stimuli/reek.mp3","","","387","list",""
"","","","","","audio-keyboard-response","406","680050","0.0-20.0-0.367","null","stim/audio_stimuli/fragrance.mp3","null","test","stim/audio_stimuli/fragrance.mp3","","","388","list",""
"","","","","","audio-keyboard-response","407","681053","0.0-20.0-0.368","null","stim/audio_stimuli/salts.mp3","null","test","stim/audio_stimuli/salts.mp3","","","389","list",""
"","","","","","audio-keyboard-response","408","683057","0.0-20.0-0.369","null","stim/audio_tones/tone_1.mp3","null","test","stim/audio_tones/tone_1.mp3","","","390","",""
"","","","","","audio-keyboard-response","409","686482","0.0-20.0-0.370","","","","test","stim/audio_stimuli/smell.mp3","false","100","391","target","70"
"","","","","","audio-keyboard-response","410","686495","0.0-20.0-0.371","null","stim/audio_instructions/silence.mp3","null","test","stim/audio_instructions/silence.mp3","","","392","",""
"","","","","","audio-keyboard-response","411","690498","0.0-20.0-0.372","null","stim/audio_tones/tone_2.mp3","null","test","stim/audio_tones/tone_2.mp3","","","393","",""
"","","","","","audio-keyboard-response","412","690512","0.0-20.0-0.373","null","stim/audio_instructions/silence.mp3","null","test","stim/audio_instructions/silence.mp3","","","394","",""
"","","","","","audio-keyboard-response","413","691515","0.0-20.0-0.374","null","stim/audio_stimuli/orange.mp3","null","test","stim/audio_stimuli/orange.mp3","","","395","list",""
"","","","","","audio-keyboard-response","414","692519","0.0-20.0-0.375","null","stim/audio_stimuli/citrus.mp3","null","test","stim/audio_stimuli/citrus.mp3","","","396","list",""
"","","","","","audio-keyboard-response","415","693522","0.0-20.0-0.376","null","stim/audio_stimuli/pear.mp3","null","test","stim/audio_stimuli/pear.mp3","","","397","list",""
"","","","","","audio-keyboard-response","416","694525","0.0-20.0-0.377","null","stim/audio_stimuli/berry.mp3","null","test","stim/audio_stimuli/berry.mp3","","","398","list",""
"","","","","","audio-keyboard-response","417","695528","0.0-20.0-0.378","null","stim/audio_stimuli/basket.mp3","null","test","stim/audio_stimuli/basket.mp3","","","399","list",""
"","","","","","audio-keyboard-response","418","696532","0.0-20.0-0.379","null","stim/audio_stimuli/salad.mp3","null","test","stim/audio_stimuli/salad.mp3","","","400","list",""
"","","","","","audio-keyboard-response","419","698536","0.0-20.0-0.380","null","stim/audio_tones/tone_1.mp3","null","test","stim/audio_tones/tone_1.mp3","","","401","",""
"","","","","","audio-keyboard-response","420","701140","0.0-20.0-0.381","","","","test","stim/audio_stimuli/sleep.mp3","false","100","402","target","70"
"","","","","","audio-keyboard-response","421","701152","0.0-20.0-0.382","null","stim/audio_instructions/silence.mp3","null","test","stim/audio_instructions/silence.mp3","","","403","",""
"","","","","","audio-keyboard-response","422","705154","0.0-20.0-0.383","null","stim/audio_tones/tone_2.mp3","null","test","stim/audio_tones/tone_2.mp3","","","404","",""
"","","","","","audio-keyboard-response","423","705169","0.0-20.0-0.384","null","stim/audio_instructions/silence.mp3","null","test","stim/audio_instructions/silence.mp3","","","405","",""
"","","","","","audio-keyboard-response","424","706171","0.0-20.0-0.385","null","stim/audio_stimuli/uncle.mp3","null","test","stim/audio_stimuli/uncle.mp3","","","406","list",""
"","","","","","audio-keyboard-response","425","707174","0.0-20.0-0.386","null","stim/audio_stimuli/mouse.mp3","null","test","stim/audio_stimuli/mouse.mp3","","","407","list",""
"","","","","","audio-keyboard-response","426","708177","0.0-20.0-0.387","null","stim/audio_stimuli/father.mp3","null","test","stim/audio_stimuli/father.mp3","","","408","list",""
"","","","","","audio-keyboard-response","427","709181","0.0-20.0-0.388","null","stim/audio_stimuli/friend.mp3","null","test","stim/audio_stimuli/friend.mp3","","","409","list",""
"","","","","","audio-keyboard-response","428","710185","0.0-20.0-0.389","null","stim/audio_stimuli/person.mp3","null","test","stim/audio_stimuli/person.mp3","","","410","list",""
"","","","","","audio-keyboard-response","429","711189","0.0-20.0-0.390","null","stim/audio_stimuli/muscle.mp3","null","test","stim/audio_stimuli/muscle.mp3","","","411","list",""
"","","","","","audio-keyboard-response","430","713192","0.0-20.0-0.391","null","stim/audio_tones/tone_1.mp3","null","test","stim/audio_tones/tone_1.mp3","","","412","",""
"","","","","","audio-keyboard-response","431","715657","0.0-20.0-0.392","","","","test","stim/audio_stimuli/nose.mp3","false","100","413","target","70"
"","","","","","audio-keyboard-response","432","715670","0.0-20.0-0.393","null","stim/audio_instructions/silence.mp3","null","test","stim/audio_instructions/silence.mp3","","","414","",""
"","","","","","audio-keyboard-response","433","719671","0.0-20.0-0.394","null","stim/audio_tones/tone_2.mp3","null","test","stim/audio_tones/tone_2.mp3","","","415","",""
"","","","","","audio-keyboard-response","434","719685","0.0-20.0-0.395","null","stim/audio_instructions/silence.mp3","null","test","stim/audio_instructions/silence.mp3","","","416","",""
"","","","","","audio-keyboard-response","435","720687","0.0-20.0-0.396","null","stim/audio_stimuli/young.mp3","null","test","stim/audio_stimuli/young.mp3","","","417","list",""
"","","","","","audio-keyboard-response","436","721690","0.0-20.0-0.397","null","stim/audio_stimuli/pretty.mp3","null","test","stim/audio_stimuli/pretty.mp3","","","418","list",""
"","","","","","audio-keyboard-response","437","722693","0.0-20.0-0.398","null","stim/audio_stimuli/niece.mp3","null","test","stim/audio_stimuli/niece.mp3","","","419","list",""
"","","","","","audio-keyboard-response","438","723697","0.0-20.0-0.399","null","stim/audio_stimuli/boy.mp3","null","test","stim/audio_stimuli/boy.mp3","false","0","420","target","74"
"","","","","","audio-keyboard-response","439","724700","0.0-20.0-0.400","null","stim/audio_stimuli/date.mp3","null","test","stim/audio_stimuli/date.mp3","","","421","list",""
"","","","","","audio-keyboard-response","440","725704","0.0-20.0-0.401","null","stim/audio_stimuli/daughter.mp3","null","test","stim/audio_stimuli/daughter.mp3","","","422","list",""
"","","","","","audio-keyboard-response","441","727707","0.0-20.0-0.402","null","stim/audio_tones/tone_1.mp3","null","test","stim/audio_tones/tone_1.mp3","","","423","",""
"","","","","","audio-keyboard-response","442","730273","0.0-20.0-0.403","","","","test","stim/audio_stimuli/boy.mp3","false","100","424","target","74"
"","","","","","audio-keyboard-response","443","730285","0.0-20.0-0.404","null","stim/audio_instructions/silence.mp3","null","test","stim/audio_instructions/silence.mp3","","","425","",""
"","","","","","audio-keyboard-response","444","734287","0.0-20.0-0.405","null","stim/audio_tones/tone_2.mp3","null","test","stim/audio_tones/tone_2.mp3","","","426","",""
"","","","","","audio-keyboard-response","445","734301","0.0-20.0-0.406","null","stim/audio_instructions/silence.mp3","null","test","stim/audio_instructions/silence.mp3","","","427","",""
"","","","","","audio-keyboard-response","446","735303","0.0-20.0-0.407","null","stim/audio_stimuli/measuring.mp3","null","test","stim/audio_stimuli/measuring.mp3","","","428","list",""
"","","","","","audio-keyboard-response","447","736306","0.0-20.0-0.408","null","stim/audio_stimuli/lid.mp3","null","test","stim/audio_stimuli/lid.mp3","","","429","list",""
"","","","","","audio-keyboard-response","448","737309","0.0-20.0-0.409","null","stim/audio_stimuli/coffee.mp3","null","test","stim/audio_stimuli/coffee.mp3","","","430","list",""
"","","","","","audio-keyboard-response","449","738313","0.0-20.0-0.410","null","stim/audio_stimuli/goblet.mp3","null","test","stim/audio_stimuli/goblet.mp3","","","431","list",""
"","","","","","audio-keyboard-response","450","739316","0.0-20.0-0.411","null","stim/audio_stimuli/stein.mp3","null","test","stim/audio_stimuli/stein.mp3","","","432","list",""
"","","","","","audio-keyboard-response","451","740319","0.0-20.0-0.412","null","stim/audio_stimuli/plastic.mp3","null","test","stim/audio_stimuli/plastic.mp3","","","433","list",""
"","","","","","audio-keyboard-response","452","742323","0.0-20.0-0.413","null","stim/audio_tones/tone_1.mp3","null","test","stim/audio_tones/tone_1.mp3","","","434","",""
"","","","","","audio-keyboard-response","453","745890","0.0-20.0-0.414","","","","test","stim/audio_stimuli/cup.mp3","false","100","435","target","70"
"","","","","","audio-keyboard-response","454","745903","0.0-20.0-0.415","null","stim/audio_instructions/silence.mp3","null","test","stim/audio_instructions/silence.mp3","","","436","",""
"","","","","","audio-keyboard-response","455","749905","0.0-20.0-0.416","null","stim/audio_tones/tone_2.mp3","null","test","stim/audio_tones/tone_2.mp3","","","437","",""
"","","","","","audio-keyboard-response","456","749918","0.0-20.0-0.417","null","stim/audio_instructions/silence.mp3","null","test","stim/audio_instructions/silence.mp3","","","438","",""
"","","","","","audio-keyboard-response","457","750921","0.0-20.0-0.418","null","stim/audio_stimuli/tough.mp3","null","test","stim/audio_stimuli/tough.mp3","","","439","list",""
"","","","","","audio-keyboard-response","458","751924","0.0-20.0-0.419","null","stim/audio_stimuli/jagged.mp3","null","test","stim/audio_stimuli/jagged.mp3","","","440","list",""
"","","","","","audio-keyboard-response","459","752927","0.0-20.0-0.420","null","stim/audio_stimuli/coarse.mp3","null","test","stim/audio_stimuli/coarse.mp3","","","441","list",""
"","","","","","audio-keyboard-response","460","753930","0.0-20.0-0.421","null","stim/audio_stimuli/smooth.mp3","null","test","stim/audio_stimuli/smooth.mp3","false","0","442","target","74"
"","","","","","audio-keyboard-response","461","754934","0.0-20.0-0.422","null","stim/audio_stimuli/sand.mp3","null","test","stim/audio_stimuli/sand.mp3","","","443","list",""
"","","","","","audio-keyboard-response","462","755937","0.0-20.0-0.423","null","stim/audio_stimuli/ground.mp3","null","test","stim/audio_stimuli/ground.mp3","","","444","list",""
"","","","","","audio-keyboard-response","463","757940","0.0-20.0-0.424","null","stim/audio_tones/tone_1.mp3","null","test","stim/audio_tones/tone_1.mp3","","","445","",""
"","","","","","audio-keyboard-response","464","760572","0.0-20.0-0.425","","","","test","stim/audio_stimuli/smooth.mp3","false","100","446","target","74"
"","","","","","audio-keyboard-response","465","760584","0.0-20.0-0.426","null","stim/audio_instructions/silence.mp3","null","test","stim/audio_instructions/silence.mp3","","","447","",""
"","","","","","audio-keyboard-response","466","764586","0.0-20.0-0.427","null","stim/audio_tones/tone_2.mp3","null","test","stim/audio_tones/tone_2.mp3","","","448","",""
"","","","","","audio-keyboard-response","467","764600","0.0-20.0-0.428","null","stim/audio_instructions/silence.mp3","null","test","stim/audio_instructions/silence.mp3","","","449","",""
"","","","","","audio-keyboard-response","468","765602","0.0-20.0-0.429","null","stim/audio_stimuli/tired.mp3","null","test","stim/audio_stimuli/tired.mp3","","","450","list",""
"","","","","","audio-keyboard-response","469","766604","0.0-20.0-0.430","null","stim/audio_stimuli/wake.mp3","null","test","stim/audio_stimuli/wake.mp3","","","451","list",""
"","","","","","audio-keyboard-response","470","767608","0.0-20.0-0.431","null","stim/audio_stimuli/blanket.mp3","null","test","stim/audio_stimuli/blanket.mp3","","","452","list",""
"","","","","","audio-keyboard-response","471","768611","0.0-20.0-0.432","null","stim/audio_stimuli/slumber.mp3","null","test","stim/audio_stimuli/slumber.mp3","","","453","list",""
"","","","","","audio-keyboard-response","472","769614","0.0-20.0-0.433","null","stim/audio_stimuli/nap.mp3","null","test","stim/audio_stimuli/nap.mp3","","","454","list",""
"","","","","","audio-keyboard-response","473","770617","0.0-20.0-0.434","null","stim/audio_stimuli/yawn.mp3","null","test","stim/audio_stimuli/yawn.mp3","","","455","list",""
"","","","","","audio-keyboard-response","474","772621","0.0-20.0-0.435","null","stim/audio_tones/tone_1.mp3","null","test","stim/audio_tones/tone_1.mp3","","","456","",""
"","","","","","audio-keyboard-response","475","777105","0.0-20.0-0.436","","","","test","stim/audio_stimuli/sleep.mp3","false","100","457","target","70"
"","","","","","audio-keyboard-response","476","777118","0.0-20.0-0.437","null","stim/audio_instructions/silence.mp3","null","test","stim/audio_instructions/silence.mp3","","","458","",""
"","","","","","audio-keyboard-response","477","781120","0.0-20.0-0.438","null","stim/audio_tones/tone_2.mp3","null","test","stim/audio_tones/tone_2.mp3","","","459","",""
"","","","","","audio-keyboard-response","478","781134","0.0-20.0-0.439","null","stim/audio_instructions/silence.mp3","null","test","stim/audio_instructions/silence.mp3","","","460","",""
"","","","","","audio-keyboard-response","479","782135","0.0-20.0-0.440","null","stim/audio_stimuli/sniff.mp3","null","test","stim/audio_stimuli/sniff.mp3","","","461","list",""
"","","","","","audio-keyboard-response","480","783139","0.0-20.0-0.441","null","stim/audio_stimuli/hear.mp3","null","test","stim/audio_stimuli/hear.mp3","","","462","list",""
"","","","","","audio-keyboard-response","481","784142","0.0-20.0-0.442","null","stim/audio_stimuli/nostril.mp3","null","test","stim/audio_stimuli/nostril.mp3","","","463","list",""
"","","","","","audio-keyboard-response","482","785146","0.0-20.0-0.443","null","stim/audio_stimuli/scent.mp3","null","test","stim/audio_stimuli/scent.mp3","","","464","list",""
"","","","","","audio-keyboard-response","483","786149","0.0-20.0-0.444","null","stim/audio_stimuli/stench.mp3","null","test","stim/audio_stimuli/stench.mp3","","","465","list",""
"","","","","","audio-keyboard-response","484","787153","0.0-20.0-0.445","null","stim/audio_stimuli/perfume.mp3","null","test","stim/audio_stimuli/perfume.mp3","","","466","list",""
"","","","","","audio-keyboard-response","485","789157","0.0-20.0-0.446","null","stim/audio_tones/tone_1.mp3","null","test","stim/audio_tones/tone_1.mp3","","","467","",""
"","","","","","audio-keyboard-response","486","791772","0.0-20.0-0.447","","","","test","stim/audio_stimuli/cup.mp3","false","100","468","target","70"
"","","","","","audio-keyboard-response","487","791784","0.0-20.0-0.448","null","stim/audio_instructions/silence.mp3","null","test","stim/audio_instructions/silence.mp3","","","469","",""
"","","","","","audio-keyboard-response","488","795787","0.0-20.0-0.449","null","stim/audio_tones/tone_2.mp3","null","test","stim/audio_tones/tone_2.mp3","","","470","",""
"","","","","","audio-keyboard-response","489","795800","0.0-20.0-0.450","null","stim/audio_instructions/silence.mp3","null","test","stim/audio_instructions/silence.mp3","","","471","",""
"","","","","","audio-keyboard-response","490","796802","0.0-20.0-0.451","null","stim/audio_stimuli/tea.mp3","null","test","stim/audio_stimuli/tea.mp3","","","472","list",""
"","","","","","audio-keyboard-response","491","797804","0.0-20.0-0.452","null","stim/audio_stimuli/coaster.mp3","null","test","stim/audio_stimuli/coaster.mp3","","","473","list",""
"","","","","","audio-keyboard-response","492","798807","0.0-20.0-0.453","null","stim/audio_stimuli/handle.mp3","null","test","stim/audio_stimuli/handle.mp3","","","474","list",""
"","","","","","audio-keyboard-response","493","799811","0.0-20.0-0.454","null","stim/audio_stimuli/straw.mp3","null","test","stim/audio_stimuli/straw.mp3","","","475","list",""
"","","","","","audio-keyboard-response","494","800814","0.0-20.0-0.455","null","stim/audio_stimuli/soup.mp3","null","test","stim/audio_stimuli/soup.mp3","","","476","list",""
"","","","","","audio-keyboard-response","495","801817","0.0-20.0-0.456","null","stim/audio_stimuli/drink.mp3","null","test","stim/audio_stimuli/drink.mp3","","","477","list",""
"","","","","","audio-keyboard-response","496","803821","0.0-20.0-0.457","null","stim/audio_tones/tone_1.mp3","null","test","stim/audio_tones/tone_1.mp3","","","478","",""
"","","","","","audio-keyboard-response","497","808826","0.0-20.0-0.458","null","stim/audio_stimuli/smell.mp3","null","test","stim/audio_stimuli/smell.mp3","false","81.4","479","target","70"
"","","","","","audio-keyboard-response","498","808838","0.0-20.0-0.459","null","stim/audio_instructions/silence.mp3","null","test","stim/audio_instructions/silence.mp3","","","480","",""
"","","","","","audio-keyboard-response","499","812841","0.0-20.0-0.460","null","stim/audio_tones/tone_2.mp3","null","test","stim/audio_tones/tone_2.mp3","","","481","",""
"","","","","","audio-keyboard-response","500","812854","0.0-20.0-0.461","null","stim/audio_instructions/silence.mp3","null","test","stim/audio_instructions/silence.mp3","","","482","",""
"","","","","","audio-keyboard-response","501","813856","0.0-20.0-0.462","null","stim/audio_stimuli/kick.mp3","null","test","stim/audio_stimuli/kick.mp3","","","483","list",""
"","","","","","audio-keyboard-response","502","814859","0.0-20.0-0.463","null","stim/audio_stimuli/soccer.mp3","null","test","stim/audio_stimuli/soccer.mp3","","","484","list",""
"","","","","","audio-keyboard-response","503","815862","0.0-20.0-0.464","null","stim/audio_stimuli/walk.mp3","null","test","stim/audio_stimuli/walk.mp3","","","485","list",""
"","","","","","audio-keyboard-response","504","816865","0.0-20.0-0.465","null","stim/audio_stimuli/shoe.mp3","null","test","stim/audio_stimuli/shoe.mp3","false","0","486","target","74"
"","","","","","audio-keyboard-response","505","817868","0.0-20.0-0.466","null","stim/audio_stimuli/inch.mp3","null","test","stim/audio_stimuli/inch.mp3","","","487","list",""
"","","","","","audio-keyboard-response","506","818871","0.0-20.0-0.467","null","stim/audio_stimuli/knee.mp3","null","test","stim/audio_stimuli/knee.mp3","","","488","list",""
"","","","","","audio-keyboard-response","507","820875","0.0-20.0-0.468","null","stim/audio_tones/tone_1.mp3","null","test","stim/audio_tones/tone_1.mp3","","","489","",""
"","","","","","audio-keyboard-response","508","823422","0.0-20.0-0.469","","","","test","stim/audio_stimuli/shoe.mp3","false","100","490","target","74"
"","","","","","audio-keyboard-response","509","823435","0.0-20.0-0.470","null","stim/audio_instructions/silence.mp3","null","test","stim/audio_instructions/silence.mp3","","","491","",""
"","","","","","audio-keyboard-response","510","827436","0.0-20.0-0.471","null","stim/audio_tones/tone_2.mp3","null","test","stim/audio_tones/tone_2.mp3","","","492","",""
"","","","","","audio-keyboard-response","511","827450","0.0-20.0-0.472","null","stim/audio_instructions/silence.mp3","null","test","stim/audio_instructions/silence.mp3","","","493","",""
"","","","","","audio-keyboard-response","512","828453","0.0-20.0-0.473","null","stim/audio_stimuli/train.mp3","null","test","stim/audio_stimuli/train.mp3","","","494","list",""
"","","","","","audio-keyboard-response","513","829456","0.0-20.0-0.474","null","stim/audio_stimuli/vehicle.mp3","null","test","stim/audio_stimuli/vehicle.mp3","","","495","list",""
"","","","","","audio-keyboard-response","514","830459","0.0-20.0-0.475","null","stim/audio_stimuli/jeep.mp3","null","test","stim/audio_stimuli/jeep.mp3","","","496","list",""
"","","","","","audio-keyboard-response","515","831462","0.0-20.0-0.476","null","stim/audio_stimuli/race.mp3","null","test","stim/audio_stimuli/race.mp3","","","497","list",""
"","","","","","audio-keyboard-response","516","832466","0.0-20.0-0.477","null","stim/audio_stimuli/garage.mp3","null","test","stim/audio_stimuli/garage.mp3","","","498","list",""
"","","","","","audio-keyboard-response","517","833470","0.0-20.0-0.478","null","stim/audio_stimuli/sedan.mp3","null","test","stim/audio_stimuli/sedan.mp3","","","499","list",""
"","","","","","audio-keyboard-response","518","835474","0.0-20.0-0.479","null","stim/audio_tones/tone_1.mp3","null","test","stim/audio_tones/tone_1.mp3","","","500","",""
"","","","","","audio-keyboard-response","519","838163","0.0-20.0-0.480","","","","test","stim/audio_stimuli/mug.mp3","false","100","501","target","70"
"","","","","","audio-keyboard-response","520","838176","0.0-20.0-0.481","null","stim/audio_instructions/silence.mp3","null","test","stim/audio_instructions/silence.mp3","","","502","",""
"","","","","","audio-keyboard-response","521","842179","0.0-20.0-0.482","null","stim/audio_tones/tone_2.mp3","null","test","stim/audio_tones/tone_2.mp3","","","503","",""
"","","","","","audio-keyboard-response","522","842193","0.0-20.0-0.483","null","stim/audio_instructions/silence.mp3","null","test","stim/audio_instructions/silence.mp3","","","504","",""
"","","","","","audio-keyboard-response","523","843196","0.0-20.0-0.484","null","stim/audio_stimuli/awake.mp3","null","test","stim/audio_stimuli/awake.mp3","","","505","list",""
"","","","","","audio-keyboard-response","524","844200","0.0-20.0-0.485","null","stim/audio_stimuli/dream.mp3","null","test","stim/audio_stimuli/dream.mp3","","","506","list",""
"","","","","","audio-keyboard-response","525","845202","0.0-20.0-0.486","null","stim/audio_stimuli/snooze.mp3","null","test","stim/audio_stimuli/snooze.mp3","","","507","list",""
"","","","","","audio-keyboard-response","526","846206","0.0-20.0-0.487","null","stim/audio_stimuli/doze.mp3","null","test","stim/audio_stimuli/doze.mp3","","","508","list",""
"","","","","","audio-keyboard-response","527","847208","0.0-20.0-0.488","null","stim/audio_stimuli/snore.mp3","null","test","stim/audio_stimuli/snore.mp3","","","509","list",""
"","","","","","audio-keyboard-response","528","848211","0.0-20.0-0.489","null","stim/audio_stimuli/peace.mp3","null","test","stim/audio_stimuli/peace.mp3","","","510","list",""
"","","","","","audio-keyboard-response","529","850215","0.0-20.0-0.490","null","stim/audio_tones/tone_1.mp3","null","test","stim/audio_tones/tone_1.mp3","","","511","",""
"","","","","","audio-keyboard-response","530","852630","0.0-20.0-0.491","","","","test","stim/audio_stimuli/fruit.mp3","false","100","512","target","70"
"","","","","","audio-keyboard-response","531","852642","0.0-20.0-0.492","null","stim/audio_instructions/silence.mp3","null","test","stim/audio_instructions/silence.mp3","","","513","",""
"","","","","","audio-keyboard-response","532","856645","0.0-20.0-0.493","null","stim/audio_tones/tone_2.mp3","null","test","stim/audio_tones/tone_2.mp3","","","514","",""
"","","","","","audio-keyboard-response","533","856659","0.0-20.0-0.494","null","stim/audio_instructions/silence.mp3","null","test","stim/audio_instructions/silence.mp3","","","515","",""
"","","","","","audio-keyboard-response","534","857662","0.0-20.0-0.495","null","stim/audio_stimuli/lawyer.mp3","null","test","stim/audio_stimuli/lawyer.mp3","","","516","list",""
"","","","","","audio-keyboard-response","535","858665","0.0-20.0-0.496","null","stim/audio_stimuli/health.mp3","null","test","stim/audio_stimuli/health.mp3","","","517","list",""
"","","","","","audio-keyboard-response","536","859668","0.0-20.0-0.497","null","stim/audio_stimuli/dentist.mp3","null","test","stim/audio_stimuli/dentist.mp3","","","518","list",""
"","","","","","audio-keyboard-response","537","860671","0.0-20.0-0.498","null","stim/audio_stimuli/ill.mp3","null","test","stim/audio_stimuli/ill.mp3","","","519","list",""
"","","","","","audio-keyboard-response","538","861674","0.0-20.0-0.499","null","stim/audio_stimuli/office.mp3","null","test","stim/audio_stimuli/office.mp3","","","520","list",""
"","","","","","audio-keyboard-response","539","862678","0.0-20.0-0.500","null","stim/audio_stimuli/surgeon.mp3","null","test","stim/audio_stimuli/surgeon.mp3","","","521","list",""
"","","","","","audio-keyboard-response","540","864681","0.0-20.0-0.501","null","stim/audio_tones/tone_1.mp3","null","test","stim/audio_tones/tone_1.mp3","","","522","",""
"","","","","","audio-keyboard-response","541","866885","0.0-20.0-0.502","","","","test","stim/audio_stimuli/king.mp3","false","100","523","target","70"
"","","","","","audio-keyboard-response","542","866898","0.0-20.0-0.503","null","stim/audio_instructions/silence.mp3","null","test","stim/audio_instructions/silence.mp3","","","524","",""
"","","","","","audio-keyboard-response","543","870901","0.0-20.0-0.504","null","stim/audio_tones/tone_2.mp3","null","test","stim/audio_tones/tone_2.mp3","","","525","",""
"","","","","","audio-keyboard-response","544","870914","0.0-20.0-0.505","null","stim/audio_instructions/silence.mp3","null","test","stim/audio_instructions/silence.mp3","","","526","",""
"","","","","","audio-keyboard-response","545","871918","0.0-20.0-0.506","null","stim/audio_stimuli/legs.mp3","null","test","stim/audio_stimuli/legs.mp3","","","527","list",""
"","","","","","audio-keyboard-response","546","872921","0.0-20.0-0.507","null","stim/audio_stimuli/couch.mp3","null","test","stim/audio_stimuli/couch.mp3","","","528","list",""
"","","","","","audio-keyboard-response","547","873924","0.0-20.0-0.508","null","stim/audio_stimuli/recliner.mp3","null","test","stim/audio_stimuli/recliner.mp3","","","529","list",""
"","","","","","audio-keyboard-response","548","874927","0.0-20.0-0.509","null","stim/audio_stimuli/wood.mp3","null","test","stim/audio_stimuli/wood.mp3","","","530","list",""
"","","","","","audio-keyboard-response","549","875930","0.0-20.0-0.510","null","stim/audio_stimuli/swivel.mp3","null","test","stim/audio_stimuli/swivel.mp3","","","531","list",""
"","","","","","audio-keyboard-response","550","876934","0.0-20.0-0.511","null","stim/audio_stimuli/sitting.mp3","null","test","stim/audio_stimuli/sitting.mp3","","","532","list",""
"","","","","","audio-keyboard-response","551","878937","0.0-20.0-0.512","null","stim/audio_tones/tone_1.mp3","null","test","stim/audio_tones/tone_1.mp3","","","533","",""
"","","","","","audio-keyboard-response","552","881304","0.0-20.0-0.513","","","","test","stim/audio_stimuli/cold.mp3","false","100","534","target","70"
"","","","","","audio-keyboard-response","553","881317","0.0-20.0-0.514","null","stim/audio_instructions/silence.mp3","null","test","stim/audio_instructions/silence.mp3","","","535","",""
"","","","","","audio-keyboard-response","554","885318","0.0-20.0-0.515","null","stim/audio_tones/tone_2.mp3","null","test","stim/audio_tones/tone_2.mp3","","","536","",""
"","","","","","audio-keyboard-response","555","885332","0.0-20.0-0.516","null","stim/audio_instructions/silence.mp3","null","test","stim/audio_instructions/silence.mp3","","","537","",""
"","","","","","audio-keyboard-response","556","886334","0.0-20.0-0.517","null","stim/audio_stimuli/medicine.mp3","null","test","stim/audio_stimuli/medicine.mp3","","","538","list",""
"","","","","","audio-keyboard-response","557","887337","0.0-20.0-0.518","null","stim/audio_stimuli/hospital.mp3","null","test","stim/audio_stimuli/hospital.mp3","","","539","list",""
"","","","","","audio-keyboard-response","558","888340","0.0-20.0-0.519","null","stim/audio_stimuli/physician.mp3","null","test","stim/audio_stimuli/physician.mp3","","","540","list",""
"","","","","","audio-keyboard-response","559","889343","0.0-20.0-0.520","null","stim/audio_stimuli/patient.mp3","null","test","stim/audio_stimuli/patient.mp3","","","541","list",""
"","","","","","audio-keyboard-response","560","890346","0.0-20.0-0.521","null","stim/audio_stimuli/stethoscope.mp3","null","test","stim/audio_stimuli/stethoscope.mp3","","","542","list",""
"","","","","","audio-keyboard-response","561","891349","0.0-20.0-0.522","null","stim/audio_stimuli/clinic.mp3","null","test","stim/audio_stimuli/clinic.mp3","","","543","list",""
"","","","","","audio-keyboard-response","562","893353","0.0-20.0-0.523","null","stim/audio_tones/tone_1.mp3","null","test","stim/audio_tones/tone_1.mp3","","","544","",""
